id,timestamp,acc_x,acc_y,acc_z,gyro_x,gyro_y,gyro_z
3.0,2024-05-10 14:36:14.468653568,3.29,-2.77,-0.58,78.43,184.14,489.32000000000005
3.0,2024-05-10 14:36:14.474936832,3.29,-2.77,-0.58,78.43,184.14,489.32
3.0,2024-05-10 14:36:14.484787456,3.29,-2.77,-0.58,78.42999999999999,184.14000000000001,489.32
3.0,2024-05-10 14:36:14.494947840,3.5003585657370517,-2.428167330677291,-0.9941434262948208,73.59151394422311,170.34633466135458,483.5951394422311
3.0,2024-05-10 14:36:14.505254656,4.25,-1.21,-2.47,33.45,55.91,436.1
3.0,2024-05-10 14:36:14.515259648,4.25,-1.21,-2.47,33.45,55.91,436.1
3.0,2024-05-10 14:36:14.524811008,4.25,-1.21,-2.47,33.45,55.91,436.1
3.0,2024-05-10 14:36:14.534840576,4.25,-1.21,-2.47,33.45,55.91,436.1
3.0,2024-05-10 14:36:14.545010944,5.616384615384615,-0.13692307692307693,-2.806230769230769,-22.09980769230769,120.09788461538461,347.8478846153846
3.0,2024-05-10 14:36:14.555139328,6.16,0.29,-2.94,-44.62,146.12,312.07
3.0,2024-05-10 14:36:14.565148160,6.16,0.2899999999999999,-2.9399999999999995,-44.61999999999999,146.12,312.06999999999994
3.0,2024-05-10 14:36:14.575241728,6.14091286307054,0.3816182572614108,-3.0268464730290456,-42.519502074688795,127.79427385892117,295.45589211618255
3.0,2024-05-10 14:36:14.585251840,5.96,1.25,-3.85,-21.61,-54.63,130.07
3.0,2024-05-10 14:36:14.595119616,5.96,1.25,-3.85,-21.61,-54.63,130.07
3.0,2024-05-10 14:36:14.605229312,5.96,1.25,-3.85,-21.61,-54.63,130.07
3.0,2024-05-10 14:36:14.614892544,5.75551867219917,0.7260165975103734,-3.191825726141079,-60.021452282157675,-9.399460580912866,-18.69564315352697
3.0,2024-05-10 14:36:14.624907264,5.64,0.43,-2.82,-91.74,27.95,-141.54
3.0,2024-05-10 14:36:14.635137280,5.64,0.43,-2.82,-91.74,27.95,-141.54
3.0,2024-05-10 14:36:14.645046784,5.64,0.43,-2.82,-91.74,27.95,-141.54
3.0,2024-05-10 14:36:14.655184640,4.117241379310345,-0.1493103448275862,-2.0503448275862066,-129.57232758620688,70.39870689655173,-255.31543103448277
3.0,2024-05-10 14:36:14.665215232,3.8,-0.27,-1.89,-143.37,85.88,-296.81
3.0,2024-05-10 14:36:14.674919424,3.8,-0.27,-1.89,-143.37,85.88,-296.81
3.0,2024-05-10 14:36:14.684585216,3.792226720647773,-0.272834008097166,-1.8866801619433198,-143.37,85.88,-296.81
3.0,2024-05-10 14:36:14.694919936,2.84,-0.62,-1.48,-140.25911392405064,39.151898734177216,-387.34974683544306
3.0,2024-05-10 14:36:14.704814080,2.84,-0.6199999999999999,-1.48,-139.53,28.2,-408.56999999999994
3.0,2024-05-10 14:36:14.714950144,2.84,-0.62,-1.48,-139.53,28.2,-408.57
3.0,2024-05-10 14:36:14.725191680,2.84,-0.62,-1.48,-139.53,28.2,-408.56999999999994
3.0,2024-05-10 14:36:14.735501056,2.781038461538462,-0.9990384615384615,-1.143076923076923,-144.3846923076923,47.392384615384614,-442.1923076923077
3.0,2024-05-10 14:36:14.745002240,2.77,-1.07,-1.08,-145.32,51.09,-448.67
3.0,2024-05-10 14:36:14.754448640,2.77,-1.07,-1.08,-145.32,51.09,-448.67
3.0,2024-05-10 14:36:14.764548608,2.765897435897436,-1.2853846153846156,-1.0841025641025641,-140.4788888888889,51.116666666666674,-458.72
3.0,2024-05-10 14:36:14.774759424,2.75,-2.12,-1.1,-101.75,51.33,-539.12
3.0,2024-05-10 14:36:14.784430336,2.75,-2.12,-1.1,-101.75,51.33,-539.12
3.0,2024-05-10 14:36:14.794706432,2.75,-2.12,-1.1,-101.75,51.33,-539.12
3.0,2024-05-10 14:36:14.805012224,2.71793893129771,-2.2642748091603053,-1.1681297709923664,-83.77213740458015,9.805000000000001,-546.3476717557252
3.0,2024-05-10 14:36:14.815007488,2.67,-2.48,-1.27,-16.11,-146.48,-573.55
3.0,2024-05-10 14:36:14.825164800,2.67,-2.48,-1.27,-16.11,-146.48,-573.55
3.0,2024-05-10 14:36:14.834971392,2.67,-2.48,-1.27,-16.11,-146.48,-573.55
3.0,2024-05-10 14:36:14.844567296,2.710592885375494,-2.4581422924901184,-1.2231620553359686,-22.816521739130433,-152.14403162055333,-567.3741106719367
3.0,2024-05-10 14:36:14.855139072,2.8,-2.41,-1.12,-83.98,-203.8,-511.05000000000007
3.0,2024-05-10 14:36:14.865003520,2.8,-2.41,-1.12,-83.98,-203.8,-511.05
3.0,2024-05-10 14:36:14.874634752,2.8,-2.41,-1.12,-83.98,-203.8,-511.05
3.0,2024-05-10 14:36:14.884740864,2.783162055335968,-2.2949407114624507,-1.128418972332016,-96.34747035573122,-218.37604743083003,-494.4337549407115
3.0,2024-05-10 14:36:14.894788352,2.74,-2.0,-1.15,-128.05,-255.74,-451.84
3.0,2024-05-10 14:36:14.905207808,2.74,-2.0,-1.15,-128.05,-255.74,-451.84
3.0,2024-05-10 14:36:14.915342592,2.74,-2.0,-1.15,-128.05,-255.74,-451.84
3.0,2024-05-10 14:36:14.925057792,2.692422907488987,-1.9365638766519822,-1.3033039647577092,-170.23748898678414,-258.0842290748899,-425.3325110132158
3.0,2024-05-10 14:36:14.934907904,2.65,-1.88,-1.44,-225.77,-261.17,-390.44
3.0,2024-05-10 14:36:14.945022976,2.65,-1.88,-1.44,-225.77,-261.17,-390.44
3.0,2024-05-10 14:36:14.954874624,2.65,-1.8800000000000001,-1.44,-225.77,-261.17,-390.44
3.0,2024-05-10 14:36:14.964887808,2.5185258964143427,-1.8441434262948206,-1.5176892430278885,-251.35486055776894,-264.276733067729,-374.01474103585656
3.0,2024-05-10 14:36:14.975045632,2.43,-1.82,-1.57,-271.97,-266.78,-360.78
3.0,2024-05-10 14:36:14.985006080,2.43,-1.82,-1.57,-271.97,-266.78,-360.78
3.0,2024-05-10 14:36:14.995360256,2.43,-1.82,-1.57,-271.97,-266.78,-360.78
3.0,2024-05-10 14:36:15.005046272,2.1545652173913044,-1.9931304347826089,-1.1450434782608696,-280.9736086956522,-274.32282608695647,-346.48617391304344
3.0,2024-05-10 14:36:15.014567680,2.08,-2.04,-1.03,-285.16,-277.83,-339.84
3.0,2024-05-10 14:36:15.024853504,2.08,-2.04,-1.03,-285.16,-277.83,-339.84
3.0,2024-05-10 14:36:15.035295744,2.08,-2.04,-1.03,-285.16,-277.83,-339.84
3.0,2024-05-10 14:36:15.045078528,-2.131825726141079,-4.917385892116183,2.005850622406639,-600.9805394190871,-184.31755186721992,-334.43751037344396
3.0,2024-05-10 14:36:15.054727936,-2.97,-5.49,2.61,-720.09,-149.05,-332.4
3.0,2024-05-10 14:36:15.064919040,-2.97,-5.49,2.61,-720.09,-149.05,-332.4
3.0,2024-05-10 14:36:15.075395072,-2.97,-5.49,2.61,-720.09,-149.05,-332.4
3.0,2024-05-10 14:36:15.085443584,-2.096254980079681,-6.59418326693227,7.785258964143426,-144.2668924302789,-189.46314741035857,-9.874302788844615
3.0,2024-05-10 14:36:15.095011328,-2.06,-6.64,8.0,-47.85,-196.23,44.13
3.0,2024-05-10 14:36:15.104830720,-2.06,-6.64,8.0,-47.85,-196.23,44.13
3.0,2024-05-10 14:36:15.114893824,-1.851860465116279,-6.364418604651163,7.359302325581395,-37.548062015503874,-180.55434108527132,53.824186046511635
3.0,2024-05-10 14:36:15.125095680,-0.27,-4.27,2.49,331.85,381.53,401.43
3.0,2024-05-10 14:36:15.135196928,-0.27,-4.27,2.49,331.85,381.53,401.43
3.0,2024-05-10 14:36:15.145338880,-0.27,-4.27,2.49,331.85,381.53,401.43
3.0,2024-05-10 14:36:15.154690816,0.3770995670995671,-4.074588744588744,1.208614718614719,333.83246753246755,379.7932467532467,400.91714285714284
3.0,2024-05-10 14:36:15.165188096,1.75,-3.66,-1.51,484.5,247.8,361.94
3.0,2024-05-10 14:36:15.175307264,1.75,-3.66,-1.51,484.5,247.8,361.94
3.0,2024-05-10 14:36:15.185162752,1.75,-3.66,-1.51,484.5,247.8,361.94
3.0,2024-05-10 14:36:15.195468288,2.466625,-3.13325,-1.8652499999999999,482.93649999999997,237.8536666666667,341.1816666666667
3.0,2024-05-10 14:36:15.205051904,2.92,-2.8,-2.09,480.96,225.28,314.94
3.0,2024-05-10 14:36:15.214672384,2.92,-2.8,-2.09,480.96,225.28,314.94
3.0,2024-05-10 14:36:15.224953856,2.92,-2.8,-2.09,480.96,225.28,314.94
3.0,2024-05-10 14:36:15.235106560,2.92,-2.3597177419354836,-1.7724193548387097,437.9835483870968,257.4859274193548,335.4774193548387
3.0,2024-05-10 14:36:15.245281024,2.92,-2.19,-1.65,399.6,286.25,353.82
3.0,2024-05-10 14:36:15.255166464,2.92,-2.19,-1.65,399.6,286.25,353.81999999999994
3.0,2024-05-10 14:36:15.264765696,2.92,-2.19,-1.65,399.6,286.25,353.82
3.0,2024-05-10 14:36:15.274799104,3.236393442622951,-2.166270491803279,-0.890655737704918,278.9450819672131,371.73352459016394,415.03401639344264
3.0,2024-05-10 14:36:15.284989184,3.32,-2.16,-0.69,225.4,409.67,442.2
3.0,2024-05-10 14:36:15.294890752,3.32,-2.16,-0.69,225.4,409.67,442.2
3.0,2024-05-10 14:36:15.304768000,3.32,-2.16,-0.69,225.4,409.67,442.2
3.0,2024-05-10 14:36:15.314843904,2.6411290322580645,-2.100967741935484,-0.41451612903225804,-15.881250000000001,447.32125,522.1487500000001
3.0,2024-05-10 14:36:15.324800256,2.63,-2.1,-0.41,-50.35,452.7,533.57
3.0,2024-05-10 14:36:15.334861568,2.63,-2.1,-0.41,-50.35,452.7,533.57
3.0,2024-05-10 14:36:15.344998912,2.583548387096774,-2.123225806451613,-0.3969354838709677,-40.799354838709675,425.0690322580645,530.0145161290322
3.0,2024-05-10 14:36:15.355276032,2.31,-2.26,-0.32,48.34,167.18,496.83
3.0,2024-05-10 14:36:15.365097472,2.31,-2.26,-0.32,48.34,167.18,496.83
3.0,2024-05-10 14:36:15.375158272,2.31,-2.26,-0.32,48.34,167.18,496.83
3.0,2024-05-10 14:36:15.385177856,2.3127678571428576,-2.26,-0.2978571428571429,54.581517857142856,145.33607142857144,488.8641071428571
3.0,2024-05-10 14:36:15.394729728,2.33,-2.26,-0.15999999999999998,93.44,9.34,439.27
3.0,2024-05-10 14:36:15.404734720,2.33,-2.26,-0.16,93.44,9.34,439.27
3.0,2024-05-10 14:36:15.415215616,2.33,-2.26,-0.16,93.44,9.34,439.27
3.0,2024-05-10 14:36:15.424793088,2.4964999999999997,-2.3771666666666667,-0.16924999999999998,110.74404166666666,8.077708333333334,435.59566666666666
3.0,2024-05-10 14:36:15.435124480,2.87,-2.64,-0.19000000000000003,150.33,5.19,427.19
3.0,2024-05-10 14:36:15.445045248,2.87,-2.64,-0.19,150.32999999999998,5.1899999999999995,427.19
3.0,2024-05-10 14:36:15.454752256,2.87,-2.64,-0.19,150.33,5.19,427.19
3.0,2024-05-10 14:36:15.464795904,3.229663865546218,-2.5051260504201682,-0.3473529411764706,122.78411764705884,30.825294117647058,431.3829411764706
3.0,2024-05-10 14:36:15.474951936,3.67,-2.34,-0.54,33.26,114.14,445.01
3.0,2024-05-10 14:36:15.485137152,3.67,-2.34,-0.54,33.26,114.14,445.01
3.0,2024-05-10 14:36:15.494874880,3.67,-2.34,-0.54,33.26,114.14,445.01
3.0,2024-05-10 14:36:15.504659456,5.2110162601626016,-1.6611382113821138,-1.9859756097560977,45.97382113821138,174.5448780487805,399.9937398373984
3.0,2024-05-10 14:36:15.514639616,5.94,-1.34,-2.67,55.6,220.28,365.91
3.0,2024-05-10 14:36:15.524722944,5.94,-1.34,-2.67,55.6,220.28,365.91
3.0,2024-05-10 14:36:15.534875136,5.94,-1.34,-2.67,55.6,220.28,365.91
3.0,2024-05-10 14:36:15.544829952,5.86872,0.43407999999999997,-3.31152,-5.502800000000001,67.28144,231.08784
3.0,2024-05-10 14:36:15.555096320,5.85,0.9,-3.48,-21.55,27.1,195.68
3.0,2024-05-10 14:36:15.565025280,5.85,0.9,-3.48,-21.55,27.1,195.67999999999998
3.0,2024-05-10 14:36:15.574756352,5.868702290076335,0.9167938931297711,-3.480572519083969,-21.55,27.1,195.68
3.0,2024-05-10 14:36:15.584615424,6.83,1.78,-3.51,-78.07016806722687,28.735882352941175,39.04210084033614
3.0,2024-05-10 14:36:15.595038208,6.83,1.78,-3.51,-86.85,28.99,14.71
3.0,2024-05-10 14:36:15.605320704,6.83,1.78,-3.51,-86.85,28.99,14.71
3.0,2024-05-10 14:36:15.615168512,6.16015873015873,1.233968253968254,-2.8433333333333333,-88.96428571428571,18.10547619047619,-22.81261904761905
3.0,2024-05-10 14:36:15.625237760,4.72,0.06,-1.41,-104.61,-62.44,-300.48
3.0,2024-05-10 14:36:15.635381248,4.72,0.06,-1.41,-104.61,-62.44,-300.48
3.0,2024-05-10 14:36:15.645387264,4.72,0.06,-1.41,-104.61,-62.44,-300.48
3.0,2024-05-10 14:36:15.654891008,4.332307692307692,-0.20653846153846153,-1.3823076923076922,-103.43820512820513,-46.2425641025641,-344.5492307692308
3.0,2024-05-10 14:36:15.664865792,3.6,-0.71,-1.33,-100.04,0.73,-472.35
3.0,2024-05-10 14:36:15.674958336,3.6,-0.71,-1.33,-100.04,0.73,-472.35
3.0,2024-05-10 14:36:15.685232384,3.6,-0.7099999999999999,-1.3300000000000003,-100.03999999999999,0.73,-472.35
3.0,2024-05-10 14:36:15.695236352,3.282819383259912,-0.9963436123348018,-1.1758149779735685,-108.95436123348017,-2.091718061674009,-492.2895594713657
3.0,2024-05-10 14:36:15.704995584,2.8800000000000003,-1.36,-0.98,-120.48,-5.739999999999999,-518.07
3.0,2024-05-10 14:36:15.714792448,2.88,-1.36,-0.98,-120.48,-5.74,-518.07
3.0,2024-05-10 14:36:15.724880640,2.88,-1.36,-0.98,-120.48,-5.74,-518.07
3.0,2024-05-10 14:36:15.735233280,2.807272727272727,-1.584793388429752,-0.9601652892561983,-138.1711157024793,2.4856611570247926,-500.8940495867769
3.0,2024-05-10 14:36:15.745278208,2.77,-1.7,-0.95,-151.73,8.79,-487.73
3.0,2024-05-10 14:36:15.755030528,2.7700000000000005,-1.7,-0.95,-151.73,8.79,-487.73
3.0,2024-05-10 14:36:15.765135104,2.77,-1.7,-0.95,-151.73000000000002,8.79,-487.73
3.0,2024-05-10 14:36:15.775273984,2.7362551440329224,-1.9834567901234568,-0.8622633744855968,-122.25222222222222,-26.654444444444444,-499.48555555555555
3.0,2024-05-10 14:36:15.784995840,2.72,-2.12,-0.82,-72.14,-86.91,-519.47
3.0,2024-05-10 14:36:15.794799360,2.72,-2.12,-0.82,-72.14,-86.91,-519.47
3.0,2024-05-10 14:36:15.805355008,2.72,-2.12,-0.82,-72.14,-86.91,-519.47
3.0,2024-05-10 14:36:15.815387392,3.099506726457399,-1.9740358744394617,-1.1605829596412556,-103.0162331838565,-109.21381165919283,-516.6771748878924
3.0,2024-05-10 14:36:15.825040384,3.11,-1.97,-1.17,-111.94,-115.66,-515.87
3.0,2024-05-10 14:36:15.835255808,3.11,-1.97,-1.17,-111.94,-115.66,-515.87
3.0,2024-05-10 14:36:15.845063168,3.108512396694215,-1.9885950413223141,-1.1900826446280992,-111.94,-115.66,-515.87
3.0,2024-05-10 14:36:15.855275008,3.09,-2.22,-1.44,-83.87374045801528,-268.87984732824424,-529.3741221374046
3.0,2024-05-10 14:36:15.865755392,3.09,-2.22,-1.44,-82.76,-274.96,-529.91
3.0,2024-05-10 14:36:15.875350784,3.09,-2.22,-1.44,-82.76,-274.96,-529.91
3.0,2024-05-10 14:36:15.885386240,3.2604382470119524,-2.1236653386454187,-1.5832669322709163,-84.35131474103586,-276.68470119521913,-527.8417928286851
3.0,2024-05-10 14:36:15.895654656,4.47,-1.44,-2.6,-127.14,-323.06,-472.23
3.0,2024-05-10 14:36:15.905609472,4.47,-1.4399999999999997,-2.6,-127.14,-323.06,-472.23
3.0,2024-05-10 14:36:15.915040768,4.47,-1.44,-2.6,-127.14,-323.06,-472.23
3.0,2024-05-10 14:36:15.924901120,4.388448979591836,-1.73534693877551,-2.522857142857143,-146.137306122449,-332.867387755102,-466.2982448979592
3.0,2024-05-10 14:36:15.935006464,4.1,-2.78,-2.25,-277.28,-400.57,-425.3500000000001
3.0,2024-05-10 14:36:15.945373184,4.1,-2.78,-2.25,-277.28,-400.57,-425.35
3.0,2024-05-10 14:36:15.955345920,4.1,-2.78,-2.25,-277.28,-400.57,-425.35
3.0,2024-05-10 14:36:15.964709632,3.051898734177215,-3.087594936708861,-1.4335443037974684,-296.3897046413502,-428.6940506329114,-418.6985232067511
3.0,2024-05-10 14:36:15.974884352,1.34,-3.59,-0.1,-341.98,-495.79,-402.83
3.0,2024-05-10 14:36:15.984494336,1.34,-3.59,-0.1,-341.98,-495.79,-402.83
3.0,2024-05-10 14:36:15.994941696,1.34,-3.59,-0.1,-341.98,-495.79,-402.83
3.0,2024-05-10 14:36:16.004988160,-0.09619047619047616,-4.691904761904762,2.9828571428571427,-409.3,-342.66636363636366,-247.28515151515148
3.0,2024-05-10 14:36:16.015060736,-0.98,-5.37,4.88,-472.66,-198.55,-100.89
3.0,2024-05-10 14:36:16.025163520,-0.98,-5.37,4.88,-472.66,-198.55,-100.89
3.0,2024-05-10 14:36:16.035504384,-0.98,-5.37,4.88,-472.66,-198.55,-100.89
3.0,2024-05-10 14:36:16.045010432,-1.5396875,-5.067946428571429,6.621250000000001,-209.65928571428572,-136.67107142857142,1.5335714285714264
3.0,2024-05-10 14:36:16.055048448,-1.61,-5.03,6.84,-85.08,-107.36,50.05
3.0,2024-05-10 14:36:16.065274880,-1.61,-5.03,6.84,-85.08,-107.36,50.05
3.0,2024-05-10 14:36:16.075052288,-1.61,-5.03,6.84,-85.08,-107.36,50.05
3.0,2024-05-10 14:36:16.084858112,-1.0197265625,-4.2771875,4.8125390625,131.69125,156.8496875,172.954375
3.0,2024-05-10 14:36:16.095057408,-0.92,-4.15,4.47,189.64,227.48,205.81
3.0,2024-05-10 14:36:16.105411072,-0.92,-4.15,4.47,189.64,227.48,205.81
3.0,2024-05-10 14:36:16.115149312,-0.8606912442396314,-4.1400460829493095,4.352626728110599,189.64,227.48,205.81000000000003
3.0,2024-05-10 14:36:16.124770816,0.51,-3.91,1.64,459.08615062761504,274.0292468619247,204.82221757322176
3.0,2024-05-10 14:36:16.134998784,0.51,-3.91,1.64,473.33,276.49,204.77
3.0,2024-05-10 14:36:16.145371648,0.51,-3.91,1.64,473.33,276.49,204.77
3.0,2024-05-10 14:36:16.154945536,1.3121719457013574,-3.9679185520361995,0.606153846153846,485.12040723981903,291.98058823529414,212.14185520361994
3.0,2024-05-10 14:36:16.165166080,3.28,-4.11,-1.93,597.41,439.51,282.35
3.0,2024-05-10 14:36:16.175234048,3.28,-4.11,-1.93,597.41,439.51,282.35
3.0,2024-05-10 14:36:16.185104640,3.28,-4.11,-1.93,597.41,439.51,282.35
3.0,2024-05-10 14:36:16.195116544,3.28,-4.11,-1.93,597.41,439.51,282.35
3.0,2024-05-10 14:36:16.204937216,3.5919178082191783,-3.6468493150684935,-2.534931506849315,605.6217808219177,264.52287671232875,217.99146118721464
3.0,2024-05-10 14:36:16.214677760,3.61,-3.62,-2.57,606.14,253.48,213.93
3.0,2024-05-10 14:36:16.225296896,3.61,-3.62,-2.57,606.14,253.48,213.93
3.0,2024-05-10 14:36:16.235197440,3.7945497630331753,-3.0160189573459717,-2.2400473933649288,541.3088625592417,314.7894786729858,227.5670616113744
3.0,2024-05-10 14:36:16.244743168,3.94,-2.54,-1.98,459.05,392.58,244.87
3.0,2024-05-10 14:36:16.254758912,3.9399999999999995,-2.54,-1.98,459.05,392.58,244.87
3.0,2024-05-10 14:36:16.264874240,3.94,-2.54,-1.98,459.05,392.58,244.87
3.0,2024-05-10 14:36:16.275308288,3.656716417910448,-2.360223880597015,-1.4188805970149254,343.6018656716418,440.9548134328358,303.2541417910448
3.0,2024-05-10 14:36:16.285409536,3.42,-2.21,-0.95,245.67,481.99,352.78
3.0,2024-05-10 14:36:16.295151616,3.42,-2.21,-0.95,245.67,481.99,352.78
3.0,2024-05-10 14:36:16.305435648,3.42,-2.21,-0.95,245.67,481.99,352.78
3.0,2024-05-10 14:36:16.315395584,2.8826785714285714,-2.1098214285714287,-0.7314285714285714,167.78062500000001,488.9260267857143,412.3203571428572
3.0,2024-05-10 14:36:16.324573952,2.83,-2.1,-0.71,150.33,490.48,425.66
3.0,2024-05-10 14:36:16.335011072,2.83,-2.1,-0.71,150.33,490.48,425.66
3.0,2024-05-10 14:36:16.345393152,2.7674468085106385,-2.0749787234042554,-0.6599574468085107,148.58463829787235,477.5210212765958,426.0777021276596
3.0,2024-05-10 14:36:16.355051776,2.53,-1.98,-0.47,133.24,363.59,429.75
3.0,2024-05-10 14:36:16.365184000,2.53,-1.98,-0.47,133.24,363.59,429.75
3.0,2024-05-10 14:36:16.375640832,2.53,-1.98,-0.47,133.24,363.59,429.75
3.0,2024-05-10 14:36:16.385331712,2.513208333333333,-1.9593333333333334,-0.42995833333333333,124.37500000000001,352.01624999999996,423.20374999999996
3.0,2024-05-10 14:36:16.395608576,2.4,-1.82,-0.16,62.32,271.0,377.38
3.0,2024-05-10 14:36:16.405419264,2.4,-1.82,-0.16,62.32,271.0,377.37999999999994
3.0,2024-05-10 14:36:16.414671872,2.4,-1.82,-0.16,62.32,271.0,377.38
3.0,2024-05-10 14:36:16.424945920,2.490697674418605,-1.8925581395348838,-0.08744186046511628,46.179844961240306,277.19906976744187,374.20852713178294
3.0,2024-05-10 14:36:16.434802432,2.6,-1.98,0.0,-67.81,320.98,351.81000000000006
3.0,2024-05-10 14:36:16.444567040,2.6,-1.98,0.0,-67.81,320.98,351.81
3.0,2024-05-10 14:36:16.454910464,2.6,-1.98,0.0,-67.81,320.98,351.81
3.0,2024-05-10 14:36:16.465097216,3.8657534246575342,-2.4722374429223746,-1.7157990867579909,-14.396027397260275,228.01575342465756,311.21260273972604
3.0,2024-05-10 14:36:16.475134976,4.4,-2.68,-2.44,32.17,146.97,275.82
3.0,2024-05-10 14:36:16.485130240,4.4,-2.68,-2.44,32.17,146.97,275.82
3.0,2024-05-10 14:36:16.495151104,4.4,-2.68,-2.44,32.17,146.97,275.82
3.0,2024-05-10 14:36:16.505187840,5.008510638297873,-0.14297872340425533,-4.012765957446809,-49.066425531914895,105.83297872340425,272.6744680851064
3.0,2024-05-10 14:36:16.515114240,5.05,0.03,-4.12,-67.26,96.62,271.97
3.0,2024-05-10 14:36:16.524823040,5.05,0.03,-4.12,-67.26,96.62,271.97
3.0,2024-05-10 14:36:16.535081216,5.363793103448275,0.2653448275862069,-4.16948275862069,-67.26,96.62,271.97
3.0,2024-05-10 14:36:16.545185536,7.65,1.98,-4.53,-68.36769874476988,-13.550627615062758,42.658200836820086
3.0,2024-05-10 14:36:16.554504448,7.65,1.98,-4.53,-68.48,-24.72,19.41
3.0,2024-05-10 14:36:16.564519424,7.65,1.98,-4.53,-68.48,-24.72,19.41
3.0,2024-05-10 14:36:16.574718464,7.65,1.9799999999999998,-4.53,-68.48,-24.72,19.41
3.0,2024-05-10 14:36:16.584635648,5.290717299578059,0.2617299578059072,-1.7967932489451475,-205.63569620253165,28.931898734177214,-219.52037974683546
3.0,2024-05-10 14:36:16.594516992,5.0,0.05,-1.46,-223.27,35.83,-250.24
3.0,2024-05-10 14:36:16.604533504,5.0,0.05,-1.46,-223.27,35.83,-250.24000000000004
3.0,2024-05-10 14:36:16.614525952,4.962092050209205,0.030418410041841006,-1.467531380753138,-221.12481171548117,36.841213389121336,-255.15548117154813
3.0,2024-05-10 14:36:16.624680960,3.49,-0.73,-1.76,-137.82,76.11,-446.03999999999996
3.0,2024-05-10 14:36:16.634627328,3.49,-0.73,-1.76,-137.82,76.11,-446.0400000000001
3.0,2024-05-10 14:36:16.644625664,3.49,-0.73,-1.76,-137.82,76.11,-446.04
3.0,2024-05-10 14:36:16.654759936,3.0812000000000004,-1.0687200000000001,-1.5264000000000002,-124.58144,24.0598,-472.68396
3.0,2024-05-10 14:36:16.665109760,2.79,-1.31,-1.36,-103.7,-58.04,-514.71
3.0,2024-05-10 14:36:16.675130368,2.79,-1.31,-1.36,-103.7,-58.04,-514.71
3.0,2024-05-10 14:36:16.684993792,2.79,-1.3100000000000003,-1.36,-103.7,-58.04,-514.71
3.0,2024-05-10 14:36:16.694964992,2.7413656387665197,-1.6322026431718062,-1.068193832599119,-126.62158590308371,-67.59348017621146,-501.5702643171806
3.0,2024-05-10 14:36:16.705127424,2.71,-1.84,-0.88,-157.9,-80.63,-483.64
3.0,2024-05-10 14:36:16.714573312,2.71,-1.84,-0.88,-157.9,-80.62999999999998,-483.64
3.0,2024-05-10 14:36:16.725006336,2.71,-1.84,-0.88,-157.9,-80.63,-483.64
3.0,2024-05-10 14:36:16.735344128,2.6966094420600855,-1.9404291845493562,-0.7728755364806866,-157.21261802575108,-125.48828326180258,-482.3511587982832
3.0,2024-05-10 14:36:16.745142272,2.69,-1.99,-0.72,-156.86,-148.5,-481.69
3.0,2024-05-10 14:36:16.755507968,2.6900000000000004,-1.99,-0.72,-156.86,-148.5,-481.69
3.0,2024-05-10 14:36:16.765101824,2.69,-1.99,-0.72,-156.86,-148.5,-481.69
3.0,2024-05-10 14:36:16.774899456,3.0344194756554304,-2.0056554307116103,-0.8687265917602996,-157.6234456928839,-153.8207490636704,-461.43531835205994
3.0,2024-05-10 14:36:16.785079552,3.13,-2.01,-0.91,-157.84,-155.33,-455.69
3.0,2024-05-10 14:36:16.794851328,3.13,-2.01,-0.91,-157.84,-155.33,-455.69
3.0,2024-05-10 14:36:16.805001472,3.13,-2.01,-0.91,-157.84,-155.33,-455.69
3.0,2024-05-10 14:36:16.814913280,3.6498770491803283,-2.239098360655738,-1.5708606557377047,-208.90180327868853,-191.73631147540985,-490.2720491803279
3.0,2024-05-10 14:36:16.824400896,3.72,-2.27,-1.66,-216.06,-196.84,-495.12
3.0,2024-05-10 14:36:16.834603776,3.72,-2.27,-1.66,-216.06,-196.84,-495.12
3.0,2024-05-10 14:36:16.844600320,3.7288,-2.262,-1.7176,-216.06,-196.84,-495.12
3.0,2024-05-10 14:36:16.854726912,3.83,-2.17,-2.38,-188.27451612903226,-285.9371774193549,-445.53088709677417
3.0,2024-05-10 14:36:16.864738816,3.8299999999999996,-2.1700000000000004,-2.38,-186.1,-292.91,-441.65
3.0,2024-05-10 14:36:16.874870528,3.83,-2.17,-2.38,-186.1,-292.91,-441.65
3.0,2024-05-10 14:36:16.885015296,3.83,-2.17,-2.38,-186.1,-292.91,-441.65
3.0,2024-05-10 14:36:16.895063296,3.83,-2.17,-2.38,-186.1,-292.91,-441.65
3.0,2024-05-10 14:36:16.905360896,3.83,-2.17,-2.38,-186.1,-292.91,-441.65
3.0,2024-05-10 14:36:16.915281664,3.7008661417322832,-2.5929133858267717,-2.5737007874015747,-247.04472440944883,-336.1988976377953,-435.50322834645664
3.0,2024-05-10 14:36:16.925331200,2.316651785714286,-3.3638839285714286,-1.1153125000000002,-440.8982142857143,-328.1796428571429,-355.84535714285715
3.0,2024-05-10 14:36:16.934989056,1.8,-3.3100000000000005,-0.25,-472.17,-281.37,-324.22
3.0,2024-05-10 14:36:16.944604928,1.8,-3.31,-0.25,-472.17,-281.37,-324.22
3.0,2024-05-10 14:36:16.954916096,1.8,-3.31,-0.25,-472.17,-281.37,-324.22
3.0,2024-05-10 14:36:16.965153024,-2.09,-6.04,4.56,-490.44354838709677,-244.26861751152074,-261.30857142857144
3.0,2024-05-10 14:36:16.974895616,-2.09,-6.04,4.56,-492.60999999999996,-239.87,-253.85
3.0,2024-05-10 14:36:16.985057024,-2.09,-6.04,4.56,-492.61000000000007,-239.87,-253.85
3.0,2024-05-10 14:36:16.995039744,-2.09,-6.04,4.56,-492.61,-239.86999999999998,-253.85
3.0,2024-05-10 14:36:17.005042688,-2.09,-6.04,4.56,-492.61,-239.87,-253.85
3.0,2024-05-10 14:36:17.015155200,-2.09,-6.04,4.56,-492.61,-239.87,-253.85
3.0,2024-05-10 14:36:17.024881664,-2.09,-6.04,4.56,-492.61,-239.87,-253.85
3.0,2024-05-10 14:36:17.035270400,-2.09,-6.04,4.56,-492.61,-239.87,-253.85
3.0,2024-05-10 14:36:17.045163520,-2.09,-6.04,4.5600000000000005,-492.61,-239.87,-253.85
3.0,2024-05-10 14:36:17.054750976,-1.5655555555555556,-4.354285714285714,3.8763492063492064,180.8422222222222,297.6668253968254,198.34285714285716
3.0,2024-05-10 14:36:17.064991488,-1.5254296875,-4.2392578125,3.818359375,226.5,334.11,229.0
3.0,2024-05-10 14:36:17.075405568,-0.36,-4.05,0.85,433.80787401574804,298.46,294.4956692913386
3.0,2024-05-10 14:36:17.084909056,-0.36,-4.05,0.85,455.44,294.74,301.33
3.0,2024-05-10 14:36:17.094971136,-0.36,-4.05,0.85,455.44,294.74,301.33
3.0,2024-05-10 14:36:17.105062400,-0.36,-4.05,0.85,455.44,294.74,301.33
3.0,2024-05-10 14:36:17.115035904,-0.36,-4.05,0.85,455.44,294.74,301.33
3.0,2024-05-10 14:36:17.125052160,-0.36,-4.05,0.85,455.44,294.74,301.33
3.0,2024-05-10 14:36:17.134692864,-0.36000000000000004,-4.05,0.85,455.44,294.74,301.3299999999999
3.0,2024-05-10 14:36:17.144966656,2.631828793774319,-3.4877431906614786,-1.640350194552529,469.8138521400778,236.61272373540857,350.2824124513619
3.0,2024-05-10 14:36:17.155257600,3.03,-3.35,-2.01,487.0,162.05,336.98
3.0,2024-05-10 14:36:17.164955904,3.03,-3.35,-2.01,487.0,162.05000000000004,336.97999999999996
3.0,2024-05-10 14:36:17.174600704,3.03,-3.35,-2.01,487.0,162.05,336.98
3.0,2024-05-10 14:36:17.184667392,3.03,-3.35,-2.01,487.0,162.05,336.98
3.0,2024-05-10 14:36:17.194494720,3.041576923076923,-3.3354615384615385,-1.9895384615384615,486.6718461538461,164.5402307692308,336.67146153846153
3.0,2024-05-10 14:36:17.204712192,3.46,-2.81,-1.25,472.78,269.96,323.61
3.0,2024-05-10 14:36:17.214976256,3.442824427480916,-2.7977862595419847,-1.234351145038168,472.78,269.96,323.61
3.0,2024-05-10 14:36:17.224795648,3.01,-2.49,-0.84,298.18766283524906,362.20743295019156,389.71030651340993
3.0,2024-05-10 14:36:17.235128832,3.01,-2.49,-0.84,284.48,369.45,394.9
3.0,2024-05-10 14:36:17.244774144,3.01,-2.49,-0.84,284.48,369.45,394.8999999999999
3.0,2024-05-10 14:36:17.254491392,2.959785407725322,-2.4655364806866955,-0.8013733905579399,284.4800000000001,369.45,394.9
3.0,2024-05-10 14:36:17.264839168,2.62,-2.3,-0.54,225.43619658119658,344.8666666666667,415.1777777777778
3.0,2024-05-10 14:36:17.275082496,2.62,-2.3,-0.54,173.95,323.43,432.86
3.0,2024-05-10 14:36:17.285331968,2.6200000000000006,-2.3,-0.54,173.95,323.43,432.86000000000007
3.0,2024-05-10 14:36:17.295114496,2.62,-2.3,-0.54,173.95,323.43,432.86
3.0,2024-05-10 14:36:17.304937984,2.62,-2.3,-0.54,173.95,323.43,432.86
3.0,2024-05-10 14:36:17.314960896,2.62,-2.3,-0.54,173.95,323.43,432.86
3.0,2024-05-10 14:36:17.325242368,2.2987610619469026,-2.1539823008849557,-0.3550442477876106,150.06150442477878,231.44858407079644,452.7670796460177
3.0,2024-05-10 14:36:17.335038208,2.472530612244898,-2.009591836734694,-0.07620408163265305,129.17326530612246,206.96955102040818,436.60714285714283
3.0,2024-05-10 14:36:17.345107200,2.55,-1.95,0.04,115.91,192.57,425.66
3.0,2024-05-10 14:36:17.350736128,2.55,-1.95,0.04,115.91,192.57,425.66
,,,,,,,
3.0,2024-05-10 14:36:17.376862720,2.520227272727273,-1.7713636363636363,0.12931818181818183,-49.576742424242425,322.5577272727273,351.63507575757575
3.0,2024-05-10 14:36:17.384890880,2.52,-1.77,0.13,-50.84,323.55,351.07
3.0,2024-05-10 14:36:17.394836480,2.52,-1.77,0.13,-50.84,323.55,351.07
3.0,2024-05-10 14:36:17.405027328,2.52,-1.77,0.13,-50.84,323.55,351.07
3.0,2024-05-10 14:36:17.415350272,3.37488,-2.63736,-0.9620000000000001,51.863,178.46380000000002,341.119
3.0,2024-05-10 14:36:17.425501696,3.89,-3.16,-1.62,114.81,89.54,335.02
3.0,2024-05-10 14:36:17.435430144,3.89,-3.16,-1.62,114.81,89.54,335.02
3.0,2024-05-10 14:36:17.445097984,4.540689655172414,-2.4992610837438423,-1.8059113300492613,83.37413793103448,130.75793103448277,328.32758620689657
3.0,2024-05-10 14:36:17.455121152,6.48,-0.53,-2.36,-113.1,388.37,286.5
3.0,2024-05-10 14:36:17.465296384,6.48,-0.53,-2.36,-113.1,388.37,286.5
3.0,2024-05-10 14:36:17.475036672,6.48,-0.53,-2.36,-113.1,388.37,286.5
3.0,2024-05-10 14:36:17.484539392,6.890464135021097,0.26662447257383964,-2.9945991561181438,-69.2179746835443,317.43607594936714,260.77898734177217
3.0,2024-05-10 14:36:17.494724864,8.0,2.42,-4.71,134.52,-11.9,141.36
3.0,2024-05-10 14:36:17.504909312,8.0,2.42,-4.71,134.52,-11.9,141.36
3.0,2024-05-10 14:36:17.515344128,8.0,2.42,-4.71,134.52,-11.9,141.36
3.0,2024-05-10 14:36:17.524969984,7.068807339449541,1.3154128440366972,-3.5379816513761466,50.44761467889909,-51.94848623853211,2.112935779816528
3.0,2024-05-10 14:36:17.535087616,5.1,-1.02,-1.06,-131.1,-138.43,-298.58
3.0,2024-05-10 14:36:17.545061120,5.1,-1.02,-1.06,-131.1,-138.43,-298.58
3.0,2024-05-10 14:36:17.554847232,5.1,-1.02,-1.06,-131.1,-138.43,-298.58
3.0,2024-05-10 14:36:17.564890624,4.3248444444444445,-0.6795111111111112,-1.436711111111111,-129.16426666666666,-18.287600000000005,-334.6336
3.0,2024-05-10 14:36:17.574513152,4.03,-0.55,-1.58,-126.83,126.59,-378.11
3.0,2024-05-10 14:36:17.584524288,4.03,-0.55,-1.58,-126.82999999999998,126.59,-378.11
3.0,2024-05-10 14:36:17.594780160,4.03,-0.55,-1.5800000000000003,-126.83,126.59,-378.11
3.0,2024-05-10 14:36:17.605273088,3.123089430894309,-0.9426829268292684,-1.112520325203252,-93.82219512195121,23.252682926829273,-446.96414634146345
3.0,2024-05-10 14:36:17.615288832,3.06,-0.97,-1.08,-67.99,-57.62,-500.85
3.0,2024-05-10 14:36:17.625085184,3.06,-0.97,-1.08,-67.99,-57.62,-500.85
3.0,2024-05-10 14:36:17.635337728,3.0372314049586775,-1.0083471074380164,-1.058429752066116,-70.33247933884297,-56.510247933884294,-500.65661157024795
3.0,2024-05-10 14:36:17.645396224,2.87,-1.29,-0.9,-138.85,-24.05,-495.0
3.0,2024-05-10 14:36:17.655455232,2.87,-1.29,-0.9,-138.85,-24.05,-495.0
3.0,2024-05-10 14:36:17.664957184,2.8699999999999997,-1.29,-0.9000000000000001,-138.85,-24.050000000000004,-495.0
3.0,2024-05-10 14:36:17.674582272,2.868333333333333,-1.4116666666666668,-0.9133333333333334,-138.85,-24.05,-495.0
3.0,2024-05-10 14:36:17.684670976,2.86,-2.02,-0.98,-132.04445833333335,-67.65983333333334,-525.8045416666668
3.0,2024-05-10 14:36:17.695310848,2.86,-2.02,-0.98,-131.84,-68.97,-526.73
3.0,2024-05-10 14:36:17.705299200,2.86,-2.02,-0.98,-131.84,-68.97,-526.73
3.0,2024-05-10 14:36:17.715390976,2.9097142857142857,-2.08865306122449,-0.9515918367346938,-125.74914285714286,-75.22044897959184,-530.9654285714286
3.0,2024-05-10 14:36:17.725607424,3.07,-2.3100000000000005,-0.8599999999999999,-87.95,-114.01,-557.25
3.0,2024-05-10 14:36:17.735444992,3.07,-2.31,-0.86,-87.95,-114.01,-557.25
3.0,2024-05-10 14:36:17.745131008,3.07,-2.31,-0.86,-87.95,-114.01,-557.25
3.0,2024-05-10 14:36:17.754663168,3.067112970711297,-2.307112970711297,-0.9013807531380753,-87.45569037656904,-121.25251046025106,-557.2104184100418
3.0,2024-05-10 14:36:17.765112832,3.04,-2.28,-1.29,-82.58,-192.69,-556.82
3.0,2024-05-10 14:36:17.775417088,3.04,-2.28,-1.29,-82.58,-192.69,-556.82
3.0,2024-05-10 14:36:17.784868608,3.04,-2.28,-1.29,-82.58,-192.69,-556.82
3.0,2024-05-10 14:36:17.794577152,3.46914979757085,-2.0868825910931177,-1.4530769230769232,-84.03384615384616,-211.94417004048583,-546.15991902834
3.0,2024-05-10 14:36:17.804859392,4.04,-1.83,-1.67,-89.23,-280.76,-508.06000000000006
3.0,2024-05-10 14:36:17.815017984,4.04,-1.83,-1.67,-89.23,-280.76,-508.06
3.0,2024-05-10 14:36:17.825184768,4.04,-1.83,-1.67,-89.23,-280.76,-508.06
3.0,2024-05-10 14:36:17.835276544,3.8689473684210527,-1.9269298245614037,-1.9550877192982457,-145.27517543859648,-265.80842105263156,-494.1823684210526
3.0,2024-05-10 14:36:17.844974592,3.74,-2.0,-2.17,-209.78,-248.6,-478.21
3.0,2024-05-10 14:36:17.855162624,3.74,-2.0,-2.17,-209.78,-248.6,-478.21
3.0,2024-05-10 14:36:17.865299456,3.74,-2.0,-2.17,-209.78,-248.6,-478.21
3.0,2024-05-10 14:36:17.875416320,3.18570281124498,-2.5129317269076306,-1.5081526104417673,-214.29180722891564,-374.52722891566265,-442.33216867469883
3.0,2024-05-10 14:36:17.885100544,3.07,-2.62,-1.37,-215.82,-417.18,-430.18
3.0,2024-05-10 14:36:17.894757120,3.07,-2.62,-1.37,-215.82,-417.18,-430.18
3.0,2024-05-10 14:36:17.905014784,3.07,-2.62,-1.37,-215.82,-417.18,-430.18
3.0,2024-05-10 14:36:17.915043840,1.2342105263157894,-3.8379757085020243,1.8691093117408906,-367.49870445344135,-363.1927935222672,-346.46291497975704
3.0,2024-05-10 14:36:17.924941824,0.99,-4.0,2.3,-415.1,-346.25,-320.19
3.0,2024-05-10 14:36:17.935325440,0.99,-4.0,2.3,-415.1,-346.25,-320.19
3.0,2024-05-10 14:36:17.945402880,0.99,-4.0,2.3,-415.1,-346.25,-320.19
3.0,2024-05-10 14:36:17.954983424,-3.2068220338983053,-6.599322033898305,5.08885593220339,-411.506779661017,-221.9021186440678,-193.37177966101694
3.0,2024-05-10 14:36:17.964708352,-3.66,-6.88,5.39,-407.1,-69.4,-37.84
3.0,2024-05-10 14:36:17.974558720,-3.6599999999999997,-6.88,5.39,-407.1,-69.4,-37.84
3.0,2024-05-10 14:36:17.984618240,-3.66,-6.88,5.39,-407.1,-69.4,-37.84
3.0,2024-05-10 14:36:17.995114496,-3.66,-6.88,5.39,-407.1,-69.4,-37.84
3.0,2024-05-10 14:36:18.005077760,-3.66,-6.88,5.39,-407.1,-69.4,-37.84
3.0,2024-05-10 14:36:18.014813184,-2.5742857142857143,-5.522857142857143,5.054285714285714,-226.61020408163265,76.58979591836734,76.25693877551019
3.0,2024-05-10 14:36:18.025212416,-1.291875,-4.424166666666666,3.7795833333333335,92.98216666666667,241.07016666666667,235.10966666666667
3.0,2024-05-10 14:36:18.035247104,-0.37,-3.82,2.54,328.37,280.21,314.45
3.0,2024-05-10 14:36:18.044922368,-0.37,-3.82,2.54,328.37,280.21,314.45
3.0,2024-05-10 14:36:18.054784512,-0.37,-3.82,2.54,328.37,280.21,314.45
3.0,2024-05-10 14:36:18.064511744,-0.07395121951219512,-3.7820975609756093,2.2306341463414636,335.2661951219512,293.5465365853658,321.4783414634146
3.0,2024-05-10 14:36:18.074986240,2.52,-3.45,-0.48,395.69,410.4,383.06
3.0,2024-05-10 14:36:18.085421312,2.52,-3.45,-0.48,395.69,410.4,383.06
3.0,2024-05-10 14:36:18.095534080,2.52,-3.45,-0.48,395.69,410.4,383.06
3.0,2024-05-10 14:36:18.105367296,2.5199999999999996,-3.45,-0.48,395.69000000000005,410.4,383.05999999999995
3.0,2024-05-10 14:36:18.114855168,2.52,-3.45,-0.48,395.69,410.4,383.06
3.0,2024-05-10 14:36:18.124788736,2.52,-3.45,-0.48,395.69,410.4,383.06
3.0,2024-05-10 14:36:18.134984960,2.52,-3.45,-0.48,395.69,410.4,383.06
3.0,2024-05-10 14:36:18.144779264,2.672,-3.3110000000000004,-0.564,402.83099999999996,395.916,377.884
3.0,2024-05-10 14:36:18.155122432,4.04,-2.06,-1.32,467.1,265.56,331.3
3.0,2024-05-10 14:36:18.165222656,4.04,-2.06,-1.3199999999999998,467.1000000000001,265.56,331.3
3.0,2024-05-10 14:36:18.174768384,4.04,-2.06,-1.32,467.1,265.56,331.3
3.0,2024-05-10 14:36:18.184727552,4.04,-2.06,-1.32,467.1,265.56,331.3
3.0,2024-05-10 14:36:18.194877952,3.746721991701245,-1.8541908713692947,-1.1296265560165974,316.1441493775934,388.541244813278,359.7222406639004
3.0,2024-05-10 14:36:18.205021696,3.283587786259542,-1.665648854961832,-0.7579389312977098,114.12026717557252,511.4146946564885,411.92839694656493
3.0,2024-05-10 14:36:18.215320832,2.81,-1.68,-0.27,-40.16,529.11,477.66
3.0,2024-05-10 14:36:18.225447168,2.81,-1.68,-0.27,-40.16,529.11,477.66
3.0,2024-05-10 14:36:18.235722240,2.81,-1.68,-0.27,-40.16,529.11,477.66
3.0,2024-05-10 14:36:18.244974592,2.4930705394190875,-1.718921161825726,-0.186597510373444,-54.12033195020747,502.5748132780083,485.05580912863076
3.0,2024-05-10 14:36:18.255035648,2.24,-1.75,-0.12000000000000001,-103.64,408.45,511.29
3.0,2024-05-10 14:36:18.265208320,2.24,-1.75,-0.12,-103.64,408.45,511.29
3.0,2024-05-10 14:36:18.275130624,2.24,-1.75,-0.12000000000000001,-103.64,408.45,511.29
3.0,2024-05-10 14:36:18.285333760,2.1681481481481484,-2.05087962962963,-0.24574074074074073,-103.74666666666666,318.77,508.6588888888889
3.0,2024-05-10 14:36:18.295224064,2.08,-2.42,-0.4,-103.88,206.67,505.37
3.0,2024-05-10 14:36:18.305338368,2.08,-2.42,-0.4,-103.88,206.67,505.37
3.0,2024-05-10 14:36:18.315555072,2.08,-2.42,-0.4,-103.88,206.67,505.37
3.0,2024-05-10 14:36:18.325310976,2.29474358974359,-2.566025641025641,-0.4171794871794872,-66.31709401709402,44.22418803418803,491.97410256410257
3.0,2024-05-10 14:36:18.335066112,2.33,-2.59,-0.42,-44.49,-50.17,484.18999999999994
3.0,2024-05-10 14:36:18.345231872,2.33,-2.59,-0.42,-44.49,-50.17,484.19
3.0,2024-05-10 14:36:18.355172608,2.33,-2.59,-0.42,-44.49,-50.17,484.19
3.0,2024-05-10 14:36:18.364709120,3.404615384615385,-2.903076923076923,0.39230769230769236,-187.03412955465586,71.00182186234818,492.05655870445344
3.0,2024-05-10 14:36:18.374655488,3.6,-2.96,0.54,-235.84,112.49,494.75
3.0,2024-05-10 14:36:18.384682752,3.6,-2.96,0.54,-235.84,112.49,494.75
3.0,2024-05-10 14:36:18.395086592,3.7338461538461543,-2.8253846153846154,0.3338461538461539,-235.84,112.49,494.75
3.0,2024-05-10 14:36:18.405000704,5.34,-1.21,-2.14,-105.27155737704919,225.89745901639347,478.7252459016393
3.0,2024-05-10 14:36:18.414893312,5.34,-1.21,-2.14,-102.54,228.27,478.39
3.0,2024-05-10 14:36:18.425332480,5.34,-1.21,-2.14,-102.54,228.27,478.39
3.0,2024-05-10 14:36:18.435371776,5.422157676348548,-1.1216182572614108,-2.14,-101.36460580912865,209.64547717842325,464.960622406639
3.0,2024-05-10 14:36:18.445156096,6.0,-0.5,-2.14,-80.75,-117.0,229.43
3.0,2024-05-10 14:36:18.454902272,6.0,-0.5,-2.14,-80.75,-117.0,229.43
3.0,2024-05-10 14:36:18.464878592,6.0,-0.5,-2.14,-80.75,-117.0,229.43
3.0,2024-05-10 14:36:18.475202048,6.418260869565217,-0.14673913043478262,-1.696304347826087,-85.69191304347825,-102.3815652173913,219.35417391304347
3.0,2024-05-10 14:36:18.485019904,7.48,0.75,-0.57,-151.79,93.14,84.59
3.0,2024-05-10 14:36:18.495171584,7.48,0.75,-0.57,-151.79,93.14,84.59
3.0,2024-05-10 14:36:18.505362432,7.48,0.75,-0.57,-151.79,93.14,84.59
3.0,2024-05-10 14:36:18.514958080,6.438912133891214,0.6586192468619246,-0.6940167364016735,-101.89284518828451,112.34301255230125,-23.39267782426778
3.0,2024-05-10 14:36:18.524752640,4.29,0.47,-0.95,1.1,151.98,-246.28
3.0,2024-05-10 14:36:18.534684928,4.29,0.47,-0.95,1.1,151.98,-246.28
3.0,2024-05-10 14:36:18.544686592,4.29,0.47,-0.95,1.1,151.98,-246.28
3.0,2024-05-10 14:36:18.554859520,3.935363636363636,0.12290909090909088,-0.7877727272727273,30.012454545454545,82.63781818181818,-326.8785454545455
3.0,2024-05-10 14:36:18.564850432,3.35,-0.45,-0.52,78.67,-34.06,-462.5199999999999
3.0,2024-05-10 14:36:18.574969344,3.35,-0.45,-0.52,78.67,-34.06,-462.52
3.0,2024-05-10 14:36:18.585296640,3.35,-0.45,-0.52,78.67,-34.06,-462.52
3.0,2024-05-10 14:36:18.594746880,3.143548387096774,-0.6933179723502305,-0.5716129032258064,-2.654239631336407,-21.89520737327189,-475.1485714285715
