id,timestamp,acc_x,acc_y,acc_z,gyro_x,gyro_y,gyro_z
1.0,2024-05-10 14:37:45.998040576,1.13,-0.44,0.09,9.22,108.83,11.900000000000002
1.0,2024-05-10 14:37:46.004994048,1.13,-0.44000000000000006,0.09,9.22,108.82999999999998,11.9
1.0,2024-05-10 14:37:46.014787072,1.13,-0.44,0.09,9.22,108.83,11.9
1.0,2024-05-10 14:37:46.024948480,0.9542290748898677,-0.4048458149779736,0.024713656387665196,7.748766519823788,66.4969603524229,-3.978898678414097
1.0,2024-05-10 14:37:46.035263488,0.78,-0.37,-0.04,5.55,3.23,-27.71
1.0,2024-05-10 14:37:46.045404160,0.78,-0.37,-0.04,5.55,3.23,-27.71
1.0,2024-05-10 14:37:46.055267328,0.78,-0.37,-0.04,5.55,3.2299999999999995,-27.71
1.0,2024-05-10 14:37:46.064864768,0.9282222222222223,-0.4108888888888889,0.016222222222222225,12.196533333333333,-8.725333333333333,-25.97551111111111
1.0,2024-05-10 14:37:46.075065344,1.07,-0.45,0.07,24.48,-30.82,-22.77
1.0,2024-05-10 14:37:46.084922880,1.07,-0.45,0.07,24.48,-30.820000000000004,-22.77
1.0,2024-05-10 14:37:46.094593536,1.07,-0.45,0.07,24.48,-30.82,-22.77
1.0,2024-05-10 14:37:46.105084928,1.0925301204819278,-0.2997991967871486,-0.0576706827309237,38.51710843373494,-23.107831325301206,-31.06590361445783
1.0,2024-05-10 14:37:46.114865664,1.1,-0.25,-0.1,44.92,-19.59,-34.85
1.0,2024-05-10 14:37:46.124668160,1.1,-0.25,-0.1,44.92,-19.59,-34.85
1.0,2024-05-10 14:37:46.134904320,1.1,-0.25,-0.1,44.92,-19.59,-34.85
1.0,2024-05-10 14:37:46.145042688,1.2040271493212669,-0.2689140271493213,-0.0432579185520362,8.19131221719457,-4.331266968325792,-28.689276018099548
1.0,2024-05-10 14:37:46.154980608,1.21,-0.27,-0.04,1.28,-1.46,-27.53
1.0,2024-05-10 14:37:46.164743680,1.21,-0.27,-0.04,1.28,-1.46,-27.53
1.0,2024-05-10 14:37:46.174914048,1.21,-0.27,-0.04,1.28,-1.46,-27.53
1.0,2024-05-10 14:37:46.185030144,1.266842105263158,-0.4689473684210526,0.09263157894736843,16.188552631578947,37.38144736842105,-42.66486842105263
1.0,2024-05-10 14:37:46.194733824,1.27,-0.48,0.1,17.09,39.73,-43.58
1.0,2024-05-10 14:37:46.205156096,1.2875555555555556,-0.4589333333333333,0.09297777777777778,24.758222222222223,45.833777777777776,-45.11755555555555
1.0,2024-05-10 14:37:46.215177728,1.3200000000000003,-0.41999999999999993,0.08,48.46,64.7,-49.87
1.0,2024-05-10 14:37:46.225070592,1.32,-0.42,0.08,48.46,64.7,-49.87
1.0,2024-05-10 14:37:46.235523328,1.32,-0.42,0.08,48.46,64.7,-49.870000000000005
1.0,2024-05-10 14:37:46.244952064,1.280377358490566,-0.4110849056603773,0.07108490566037735,46.65816037735849,60.54655660377359,-48.503018867924524
1.0,2024-05-10 14:37:46.254894336,0.92,-0.33,-0.01,30.27,22.77,-36.07
1.0,2024-05-10 14:37:46.264626944,0.92,-0.33,-0.01,30.27,22.77,-36.07
1.0,2024-05-10 14:37:46.274871040,0.92,-0.32999999999999996,-0.01,30.27,22.77,-36.07
1.0,2024-05-10 14:37:46.284962560,1.044149377593361,-0.5125726141078838,-0.06112033195020747,20.603029045643154,-8.79273858921162,-22.858298755186723
1.0,2024-05-10 14:37:46.294681344,1.09,-0.58,-0.08,11.78,-37.6,-10.8
1.0,2024-05-10 14:37:46.304943360,1.09,-0.58,-0.08,11.78,-37.6,-10.8
1.0,2024-05-10 14:37:46.315095296,1.09,-0.58,-0.08,11.78,-37.6,-10.8
1.0,2024-05-10 14:37:46.325039360,1.0096279069767442,-0.32995348837209304,0.07181395348837209,54.16097674418605,-28.563767441860467,-34.42455813953488
1.0,2024-05-10 14:37:46.334853888,1.0,-0.3,0.09,64.45,-26.37,-40.16
1.0,2024-05-10 14:37:46.344926208,1.0,-0.3,0.09,64.45,-26.37,-40.16
1.0,2024-05-10 14:37:46.355019776,1.0,-0.3,0.09,64.45,-26.37,-40.16
1.0,2024-05-10 14:37:46.365167360,0.9203375527426161,-0.5688607594936709,-0.04940928270042194,52.220042194092834,-8.743080168776372,-6.499999999999999
1.0,2024-05-10 14:37:46.375015424,0.92,-0.57,-0.05,48.95,-4.03,2.5
1.0,2024-05-10 14:37:46.385145344,0.92,-0.57,-0.05,48.95,-4.03,2.5
1.0,2024-05-10 14:37:46.395201280,0.9225190839694657,-0.5187786259541984,-0.046641221374045805,47.76614503816794,-6.5051145038167935,0.004847328244274889
1.0,2024-05-10 14:37:46.405338624,0.95,0.04,-0.01,34.18,-34.91,-28.63
1.0,2024-05-10 14:37:46.415158784,0.95,0.04,-0.01,34.18,-34.91,-28.63
1.0,2024-05-10 14:37:46.425102080,0.95,0.04,-0.01,34.18,-34.91,-28.63
1.0,2024-05-10 14:37:46.435038464,0.9484680851063829,0.028510638297872343,-0.008468085106382979,34.315106382978726,-34.46723404255319,-28.929787234042553
1.0,2024-05-10 14:37:46.444654080,0.89,-0.41,0.05,40.53,-14.1,-42.72
1.0,2024-05-10 14:37:46.454709760,0.89,-0.41,0.05,40.53,-14.1,-42.72
1.0,2024-05-10 14:37:46.464852992,0.89,-0.4099999999999999,0.05,40.53,-14.1,-42.72
1.0,2024-05-10 14:37:46.475141120,0.8960408163265307,-0.0173469387755102,0.013755102040816328,61.63628571428571,0.41057142857142914,-34.40342857142857
1.0,2024-05-10 14:37:46.485380608,0.9,0.24,-0.010000000000000002,79.41,12.63,-27.4
1.0,2024-05-10 14:37:46.494856192,0.9,0.23999999999999996,-0.01,79.41,12.629999999999999,-27.4
1.0,2024-05-10 14:37:46.504860672,0.9,0.24,-0.01,79.41,12.63,-27.4
1.0,2024-05-10 14:37:46.514823424,0.9377118644067796,0.013728813559322033,0.005084745762711864,56.44898305084745,-27.27,-75.83389830508474
1.0,2024-05-10 14:37:46.524519168,0.95,-0.06,0.01,43.76,-49.32,-102.6
1.0,2024-05-10 14:37:46.534772992,0.95,-0.06,0.01,43.76,-49.32,-102.6
1.0,2024-05-10 14:37:46.545228544,0.95,-0.06,0.01,43.76,-49.32,-102.6
1.0,2024-05-10 14:37:46.555048960,0.9214042553191489,0.05438297872340425,-0.03765957446808511,91.92136170212765,-3.328851063829787,-66.04493617021276
1.0,2024-05-10 14:37:46.564845056,0.92,0.06,-0.04,99.24,3.66,-60.49
1.0,2024-05-10 14:37:46.574982400,0.92,0.06,-0.04,99.24,3.66,-60.49
1.0,2024-05-10 14:37:46.585174784,0.92,0.06,-0.04,99.24,3.66,-60.489999999999995
1.0,2024-05-10 14:37:46.595022080,0.9578333333333333,0.22079166666666666,-0.08729166666666667,63.77683333333333,4.347416666666666,-45.602250000000005
1.0,2024-05-10 14:37:46.605059328,0.96,0.23,-0.09,61.58,4.39,-44.68
1.0,2024-05-10 14:37:46.615210752,0.9600000000000001,0.23,-0.09,61.58,4.39,-44.67999999999999
1.0,2024-05-10 14:37:46.624872960,0.96,0.23,-0.09,61.58,4.39,-44.68
1.0,2024-05-10 14:37:46.634934272,0.9554377880184332,0.24368663594470047,-0.053502304147465436,48.04967741935484,-23.090645161290322,-59.50645161290323
1.0,2024-05-10 14:37:46.644549376,0.95,0.26,-0.01,31.62,-56.46,-77.51
1.0,2024-05-10 14:37:46.654806016,0.95,0.26,-0.01,31.62,-56.46,-77.51
1.0,2024-05-10 14:37:46.665229312,0.9550592885375494,0.29035573122529645,-0.02517786561264822,41.90418972332016,-45.13411067193676,-81.76810276679842
1.0,2024-05-10 14:37:46.674994176,0.9600000000000001,0.32,-0.04,56.4,-29.17,-87.77
1.0,2024-05-10 14:37:46.684487680,0.96,0.32,-0.04,56.4,-29.17,-87.77
1.0,2024-05-10 14:37:46.694822656,0.96,0.31999999999999995,-0.039999999999999994,56.4,-29.17,-87.77
1.0,2024-05-10 14:37:46.705093120,0.8336170212765958,0.5657446808510639,-0.15936170212765954,91.58808510638298,-7.978510638297873,-86.21255319148936
1.0,2024-05-10 14:37:46.714918144,0.78,0.67,-0.21,125.31,12.33,-84.72
1.0,2024-05-10 14:37:46.724640000,0.78,0.67,-0.21,125.31,12.33,-84.72
1.0,2024-05-10 14:37:46.735330048,0.78,0.67,-0.21,125.31,12.33,-84.72
1.0,2024-05-10 14:37:46.744938496,0.6566233766233767,0.827922077922078,-0.4222077922077922,154.23995670995672,46.905064935064935,-116.36489177489177
1.0,2024-05-10 14:37:46.754998784,0.53,0.9899999999999999,-0.64,184.45,83.01,-149.41
1.0,2024-05-10 14:37:46.765042688,0.53,0.99,-0.64,184.45,83.01,-149.41
1.0,2024-05-10 14:37:46.775148800,0.53,0.99,-0.64,184.45,83.01,-149.41
1.0,2024-05-10 14:37:46.785045504,0.4351818181818182,1.2609090909090908,-0.8973636363636365,190.9789090909091,86.39636363636365,-152.68122727272728
1.0,2024-05-10 14:37:46.794758400,0.39,1.39,-1.02,194.09,88.01,-154.24
1.0,2024-05-10 14:37:46.804684544,0.39,1.39,-1.02,194.09,88.01,-154.24
1.0,2024-05-10 14:37:46.815058176,0.39334645669291335,1.3806299212598423,-0.9892125984251968,182.79102362204725,85.66948818897639,-148.16149606299214
1.0,2024-05-10 14:37:46.825030144,0.44,1.25,-0.56,25.27,53.04,-63.42
1.0,2024-05-10 14:37:46.835078912,0.44,1.25,-0.56,25.27,53.04,-63.42
1.0,2024-05-10 14:37:46.844991744,0.44,1.25,-0.56,25.27,53.04,-63.42
1.0,2024-05-10 14:37:46.854895360,0.46962343096234316,1.1784100418410042,-0.4735983263598327,-12.354225941422595,15.341715481171546,-37.45753138075314
1.0,2024-05-10 14:37:46.865049344,0.56,0.96,-0.21,-127.13999999999999,-99.67,41.75
1.0,2024-05-10 14:37:46.875128576,0.56,0.96,-0.21,-127.14,-99.67,41.75
1.0,2024-05-10 14:37:46.885068288,0.56,0.96,-0.21,-127.14,-99.67,41.75
1.0,2024-05-10 14:37:46.895190784,0.7266216216216216,0.6637837837837837,-0.04954954954954954,-120.92400900900901,-102.69500000000001,41.975450450450445
1.0,2024-05-10 14:37:46.904894208,0.8300000000000001,0.48,0.05,-102.05,-111.88,42.66
1.0,2024-05-10 14:37:46.915169024,0.8351724137931034,0.4758620689655172,0.04120689655172414,-102.05,-111.88,42.66
1.0,2024-05-10 14:37:46.925380096,0.93,0.4,-0.12,-13.991343873517787,-60.8196442687747,12.359051383399208
1.0,2024-05-10 14:37:46.934903296,0.9300000000000002,0.4,-0.12,8.790000000000001,-47.61,4.5200000000000005
1.0,2024-05-10 14:37:46.944603904,0.93,0.4,-0.12000000000000001,8.79,-47.61,4.52
1.0,2024-05-10 14:37:46.954729472,0.93,0.4,-0.12,8.79,-47.61,4.52
1.0,2024-05-10 14:37:46.964859136,0.823125,0.64225,-0.340875,26.5125,12.229999999999999,-15.887083333333333
1.0,2024-05-10 14:37:46.975073792,0.78,0.74,-0.43,33.81,36.87,-24.29
1.0,2024-05-10 14:37:46.985203968,0.78,0.74,-0.42999999999999994,33.81,36.86999999999999,-24.29
1.0,2024-05-10 14:37:46.995084032,0.78,0.74,-0.43,33.81,36.87,-24.29
1.0,2024-05-10 14:37:47.004760064,0.7581818181818182,0.7509090909090909,-0.4027272727272727,28.15909090909091,40.6177990430622,-24.53961722488038
1.0,2024-05-10 14:37:47.015192832,0.66,0.8,-0.28,1.8899999999999997,58.04,-25.7
1.0,2024-05-10 14:37:47.025276672,0.66,0.8,-0.28,1.8899999999999997,58.04,-25.7
1.0,2024-05-10 14:37:47.034941952,0.66,0.8,-0.28,1.89,58.04,-25.7
1.0,2024-05-10 14:37:47.044917504,0.6029203539823008,1.0758849557522123,-0.20389380530973453,21.140530973451323,82.43221238938054,-11.827876106194692
1.0,2024-05-10 14:37:47.055033344,0.6,1.09,-0.2,22.22,83.8,-11.05
1.0,2024-05-10 14:37:47.065440256,0.6,1.09,-0.2,22.22,83.8,-11.05
1.0,2024-05-10 14:37:47.075081216,0.4984070796460177,0.9884070796460177,-0.2217699115044248,41.00371681415929,108.03150442477876,-3.8563716814159297
1.0,2024-05-10 14:37:47.084680704,0.46,0.95,-0.23,51.7,121.83,0.23999999999999996
1.0,2024-05-10 14:37:47.095015424,0.46,0.95,-0.23,51.7,121.83,0.24
1.0,2024-05-10 14:37:47.105123840,0.46,0.95,-0.23,51.7,121.83,0.24
1.0,2024-05-10 14:37:47.115248128,0.544304932735426,1.0174439461883409,-0.2974439461883408,54.271300448430495,94.34443946188341,12.029686098654707
1.0,2024-05-10 14:37:47.124975360,0.56,1.03,-0.31,56.39999999999999,71.59,21.79
1.0,2024-05-10 14:37:47.134417920,0.56,1.03,-0.31,56.4,71.59,21.789999999999996
1.0,2024-05-10 14:37:47.144734464,0.56,1.03,-0.31000000000000005,56.4,71.59,21.79
1.0,2024-05-10 14:37:47.155319040,0.7277966101694915,0.8622033898305085,-0.28203389830508474,29.7825,45.184576271186444,18.917330508474574
1.0,2024-05-10 14:37:47.165052672,0.74,0.85,-0.28,-12.63,3.11,14.34
1.0,2024-05-10 14:37:47.174664448,0.74,0.85,-0.28,-12.63,3.11,14.34
1.0,2024-05-10 14:37:47.184983040,0.7545701357466063,0.8728959276018099,-0.2737556561085973,-16.1220814479638,6.404434389140272,15.06502262443439
1.0,2024-05-10 14:37:47.195013888,0.81,0.96,-0.25,-49.38,37.78,21.97
1.0,2024-05-10 14:37:47.205354752,0.81,0.96,-0.25,-49.38,37.78,21.97
1.0,2024-05-10 14:37:47.215378176,0.81,0.96,-0.25,-49.38000000000001,37.78,21.97
1.0,2024-05-10 14:37:47.224888064,0.7572602739726028,0.7982648401826483,-0.2535159817351598,-58.99118721461188,11.859680365296803,14.184611872146117
1.0,2024-05-10 14:37:47.234778112,0.66,0.5,-0.26,-87.65,-65.43,-9.03
1.0,2024-05-10 14:37:47.244655360,0.66,0.5,-0.26,-87.65,-65.43,-9.03
1.0,2024-05-10 14:37:47.254781184,0.66,0.5,-0.26,-87.65,-65.43,-9.03
1.0,2024-05-10 14:37:47.264987392,0.7062499999999999,0.6057142857142858,-0.2005357142857143,-82.7684375,-14.420223214285716,33.532008928571436
1.0,2024-05-10 14:37:47.274804992,0.73,0.66,-0.17,-79.04,24.54,66.04
1.0,2024-05-10 14:37:47.284848896,0.73,0.66,-0.17,-79.04,24.54,66.04
1.0,2024-05-10 14:37:47.295174656,0.73,0.66,-0.17,-79.04,24.54,66.04
1.0,2024-05-10 14:37:47.304904448,0.5263800904977376,0.5355656108597285,-0.2209049773755656,-107.81031674208144,-53.004162895927614,44.253846153846155
1.0,2024-05-10 14:37:47.314596608,0.37,0.44,-0.26,-143.92,-150.33,16.91
1.0,2024-05-10 14:37:47.324957440,0.37,0.44,-0.26,-143.92,-150.33,16.91
1.0,2024-05-10 14:37:47.335327744,0.37,0.44,-0.26,-143.92000000000002,-150.32999999999998,16.91
1.0,2024-05-10 14:37:47.345444608,1.0973417721518988,0.09059071729957806,0.16071729957805908,-109.09367088607596,-66.69860759493672,85.91759493670887
1.0,2024-05-10 14:37:47.355366912,1.39,-0.05,0.33,-94.79,-32.35,114.26
1.0,2024-05-10 14:37:47.365069312,1.39,-0.05000000000000001,0.32999999999999996,-94.79,-32.35,114.26
1.0,2024-05-10 14:37:47.374924544,1.39,-0.05,0.33,-94.79,-32.35,114.26
1.0,2024-05-10 14:37:47.385181696,0.3573255813953488,0.34569767441860466,-0.4420930232558139,-104.73236434108527,-1.3087984496124034,93.87926356589148
1.0,2024-05-10 14:37:47.395359232,0.32,0.36,-0.47,-108.22,9.58,86.73
1.0,2024-05-10 14:37:47.405071104,0.32000000000000006,0.36,-0.47,-108.22,9.580000000000002,86.73
1.0,2024-05-10 14:37:47.414687744,0.4254054054054054,0.312027027027027,-0.39837837837837836,-108.22,9.580000000000002,86.73
1.0,2024-05-10 14:37:47.425090816,1.88,-0.35,0.59,-133.11775999999998,-177.94864,19.71784
1.0,2024-05-10 14:37:47.435324672,1.88,-0.35,0.59,-133.73,-182.56,18.07
1.0,2024-05-10 14:37:47.445232640,1.88,-0.35,0.59,-133.73,-182.56,18.07
1.0,2024-05-10 14:37:47.455241216,1.6870399999999999,-0.32696,0.3307999999999999,-114.40507999999998,-54.647920000000006,63.83944
1.0,2024-05-10 14:37:47.465417728,1.21,-0.27,-0.30999999999999994,-39.0,444.46,242.43
1.0,2024-05-10 14:37:47.475131136,1.21,-0.27,-0.31,-39.0,444.46,242.43
1.0,2024-05-10 14:37:47.485294848,1.2100000000000002,-0.27,-0.31,-39.0,444.46,242.43
1.0,2024-05-10 14:37:47.494968832,0.8760633484162895,-0.24963800904977376,-0.4199547511312217,-83.85067873303167,242.49257918552033,168.81280542986426
1.0,2024-05-10 14:37:47.504981760,0.39,-0.22,-0.58,-180.6,-193.18,10.01
1.0,2024-05-10 14:37:47.515110656,0.39,-0.22,-0.58,-180.6,-193.18,10.01
1.0,2024-05-10 14:37:47.525073152,0.39,-0.22,-0.58,-180.6,-193.18,10.01
1.0,2024-05-10 14:37:47.534849792,0.9016129032258065,-0.6435483870967742,-0.24451612903225806,-158.61861751152074,-150.95456221198157,28.27709677419355
1.0,2024-05-10 14:37:47.544567552,1.61,-1.23,0.22,-88.87,-16.97,86.24
1.0,2024-05-10 14:37:47.554887168,1.61,-1.23,0.22,-88.87,-16.97,86.24
1.0,2024-05-10 14:37:47.564895744,1.61,-1.23,0.22,-88.87,-16.97,86.24
1.0,2024-05-10 14:37:47.574989568,1.2878823529411765,-0.8730588235294118,-0.05423529411764705,-70.40482352941176,-44.571999999999996,78.82694117647058
1.0,2024-05-10 14:37:47.585352704,0.87,-0.41,-0.41,-46.45,-80.38,69.21
1.0,2024-05-10 14:37:47.595095296,0.87,-0.41000000000000003,-0.41000000000000003,-46.45,-80.37999999999998,69.21
1.0,2024-05-10 14:37:47.604838144,0.87,-0.41,-0.41,-46.45000000000001,-80.38,69.21
1.0,2024-05-10 14:37:47.614772992,1.2575,-0.57275,0.00850000000000001,-33.829750000000004,-65.55433333333333,52.534416666666665
1.0,2024-05-10 14:37:47.624730880,1.37,-0.62,0.13,-27.28,-57.86,43.88
1.0,2024-05-10 14:37:47.634927360,1.37,-0.6200000000000001,0.13,-27.28,-57.86,43.88
1.0,2024-05-10 14:37:47.644848896,1.37,-0.62,0.13,-27.28,-57.86,43.88
1.0,2024-05-10 14:37:47.654655488,1.0823076923076924,-0.34974358974358977,-0.12282051282051283,-9.46991452991453,-33.50068376068376,16.874529914529916
1.0,2024-05-10 14:37:47.664747520,1.04,-0.31,-0.16,-3.05,-24.72,7.140000000000001
1.0,2024-05-10 14:37:47.674781184,1.04,-0.31,-0.16,-3.05,-24.72,7.14
1.0,2024-05-10 14:37:47.684920064,1.04,-0.30999999999999994,-0.16,-3.0499999999999994,-24.720000000000002,7.14
1.0,2024-05-10 14:37:47.694627072,1.142175732217573,-0.43075313807531385,0.06292887029288703,-9.26389121338912,32.23142259414226,7.593096234309623
1.0,2024-05-10 14:37:47.704930816,1.15,-0.44,0.08,-9.77,36.87,7.63
1.0,2024-05-10 14:37:47.715010560,1.15,-0.44,0.07999999999999999,-9.77,36.87,7.630000000000001
1.0,2024-05-10 14:37:47.724690432,1.0445851528384278,-0.4027947598253275,-0.0037117903930131,-10.145589519650654,38.347729257641916,8.030218340611354
1.0,2024-05-10 14:37:47.735021568,0.81,-0.32,-0.19000000000000003,-11.6,44.07,9.58
1.0,2024-05-10 14:37:47.745399296,0.81,-0.32,-0.19,-11.6,44.07,9.58
1.0,2024-05-10 14:37:47.755221248,0.81,-0.32,-0.19,-11.6,44.07,9.58
1.0,2024-05-10 14:37:47.765059072,0.978256880733945,-0.4101376146788991,-0.0758256880733945,-1.372018348623853,13.239724770642201,-1.0112844036697248
1.0,2024-05-10 14:37:47.774709248,1.09,-0.47,0.0,8.67,-17.03,-11.41
1.0,2024-05-10 14:37:47.784988928,1.09,-0.47,0.0,8.67,-17.03,-11.41
1.0,2024-05-10 14:37:47.794850048,1.09,-0.47,0.0,8.67,-17.03,-11.41
1.0,2024-05-10 14:37:47.804738048,1.069203187250996,-0.35215139442231075,-0.15250996015936255,12.195338645418326,-18.937051792828683,-7.150717131474103
1.0,2024-05-10 14:37:47.814576640,1.06,-0.3,-0.22,14.53,-20.2,-4.33
1.0,2024-05-10 14:37:47.824570880,1.06,-0.3,-0.22,14.53,-20.2,-4.33
1.0,2024-05-10 14:37:47.835269376,1.06,-0.3,-0.22,14.53,-20.2,-4.33
1.0,2024-05-10 14:37:47.845379072,1.3039999999999998,-0.44487499999999996,-0.120875,-20.35525,-42.4525,-0.9605
1.0,2024-05-10 14:37:47.855180032,1.38,-0.49,-0.09,-46.14,-58.9,1.53
1.0,2024-05-10 14:37:47.865212672,1.38,-0.49,-0.09,-46.14,-58.9,1.53
1.0,2024-05-10 14:37:47.875213568,1.3647457627118644,-0.49050847457627117,-0.0935593220338983,-46.14,-58.9,1.53
1.0,2024-05-10 14:37:47.885042176,1.08,-0.5,-0.16,-4.618048780487805,17.98048780487805,-2.436829268292683
1.0,2024-05-10 14:37:47.894955264,1.08,-0.5,-0.16,-1.34,24.05,-2.75
1.0,2024-05-10 14:37:47.905063680,1.08,-0.5,-0.16,-1.34,24.05,-2.75
1.0,2024-05-10 14:37:47.915436800,1.07752,-0.52232,-0.17364000000000002,0.5104,22.104,-2.3764000000000003
1.0,2024-05-10 14:37:47.925029120,1.06,-0.68,-0.27,44.92,-24.600000000000005,6.59
1.0,2024-05-10 14:37:47.934893056,1.06,-0.68,-0.27,44.92,-24.6,6.59
1.0,2024-05-10 14:37:47.945394176,1.06,-0.68,-0.27,44.92,-24.6,6.59
1.0,2024-05-10 14:37:47.955392256,1.045889328063241,-0.663399209486166,-0.26335968379446645,44.02276679841897,-23.50909090909091,8.133873517786562
1.0,2024-05-10 14:37:47.965031680,0.89,-0.48,-0.19,33.57,-10.8,26.12
1.0,2024-05-10 14:37:47.974680576,0.89,-0.48,-0.19,33.57,-10.8,26.12
1.0,2024-05-10 14:37:47.984665088,0.89,-0.48,-0.19,33.57,-10.8,26.12
1.0,2024-05-10 14:37:47.995126272,0.975,-0.5650000000000001,-0.2128846153846154,45.59215384615385,-4.424615384615385,16.428846153846155
1.0,2024-05-10 14:37:48.005267968,1.15,-0.7399999999999999,-0.26,75.81,11.6,-7.93
1.0,2024-05-10 14:37:48.014566656,1.15,-0.74,-0.26,75.81,11.6,-7.93
1.0,2024-05-10 14:37:48.025025536,1.15,-0.74,-0.26,75.81,11.6,-7.93
1.0,2024-05-10 14:37:48.035442688,1.0492000000000001,-0.6056,-0.24880000000000002,74.69772,7.42136,-4.3254399999999995
1.0,2024-05-10 14:37:48.045341440,0.79,-0.26,-0.22,71.78,-3.54,5.13
1.0,2024-05-10 14:37:48.055097344,0.79,-0.26,-0.22,71.78,-3.54,5.13
1.0,2024-05-10 14:37:48.065182464,0.79,-0.26,-0.22,71.78,-3.54,5.13
1.0,2024-05-10 14:37:48.075072512,0.9253333333333333,-0.39066666666666666,-0.22466666666666668,62.666000000000004,16.144,-24.09733333333333
1.0,2024-05-10 14:37:48.085272576,1.08,-0.54,-0.23,52.25,38.64,-57.5
1.0,2024-05-10 14:37:48.095202048,1.08,-0.54,-0.23000000000000004,52.25,38.64,-57.5
1.0,2024-05-10 14:37:48.104977920,1.08,-0.54,-0.23,52.25,38.64,-57.5
1.0,2024-05-10 14:37:48.115043072,0.9432478632478632,-0.14683760683760683,-0.14452991452991454,79.49017094017094,52.32888888888889,-46.61709401709402
1.0,2024-05-10 14:37:48.125158144,0.92,-0.08,-0.13,97.78,61.52,-39.31
1.0,2024-05-10 14:37:48.135238144,0.92,-0.08,-0.13,97.78,61.52,-39.31
1.0,2024-05-10 14:37:48.145287680,0.92,-0.08,-0.13,97.78,61.52,-39.31
1.0,2024-05-10 14:37:48.155224064,0.9860262008733625,-0.22030567685589522,-0.022707423580786028,56.67043668122271,39.55803493449781,-62.782314410480346
1.0,2024-05-10 14:37:48.164827648,1.0,-0.25,0.0,47.97,34.910000000000004,-67.75
1.0,2024-05-10 14:37:48.174993152,1.0,-0.25,0.0,47.97,34.91,-67.75
1.0,2024-05-10 14:37:48.184740608,0.9997826086956522,-0.24808695652173915,4.347826086956522e-05,47.97,34.91,-67.75
1.0,2024-05-10 14:37:48.194980864,0.95,0.19000000000000003,0.01,56.345123966942154,8.529256198347108,-60.96202479338843
1.0,2024-05-10 14:37:48.205289984,0.95,0.19,0.01,57.31,5.49,-60.18
1.0,2024-05-10 14:37:48.214867968,0.95,0.19,0.01,57.31,5.490000000000001,-60.18
1.0,2024-05-10 14:37:48.225047296,0.9415384615384614,0.17307692307692307,0.01846153846153846,53.957692307692305,4.593846153846155,-60.574615384615385
1.0,2024-05-10 14:37:48.235163648,0.9,0.09,0.06,13.73,-6.16,-65.31
1.0,2024-05-10 14:37:48.244836864,0.9,0.09,0.06,13.73,-6.16,-65.31
1.0,2024-05-10 14:37:48.255115776,0.8910714285714286,0.09,0.09273809523809524,13.541388888888891,-14.112777777777778,-69.7238888888889
1.0,2024-05-10 14:37:48.265326592,0.87,0.09,0.16999999999999998,12.76,-47.06000000000001,-88.01
1.0,2024-05-10 14:37:48.274909440,0.87,0.09,0.17,12.76,-47.06,-88.01
1.0,2024-05-10 14:37:48.284959488,0.87,0.09,0.17,12.76,-47.06,-88.01
1.0,2024-05-10 14:37:48.294632704,0.8644915254237289,0.14508474576271188,0.14796610169491525,34.7993220338983,-24.0335593220339,-83.2879661016949
1.0,2024-05-10 14:37:48.304751104,0.86,0.19,0.13,59.2,1.46,-78.06
1.0,2024-05-10 14:37:48.314900224,0.86,0.19,0.13,59.2,1.46,-78.06
1.0,2024-05-10 14:37:48.324864000,0.86,0.19,0.13,59.2,1.4600000000000002,-78.05999999999999
1.0,2024-05-10 14:37:48.334593280,0.8072268907563025,0.20978991596638655,0.037647058823529415,59.92088235294118,-16.61235294117647,-81.64205882352941
1.0,2024-05-10 14:37:48.344882688,0.78,0.22,-0.01,60.49,-30.88,-84.47
1.0,2024-05-10 14:37:48.354991360,0.78,0.22,-0.01,60.49,-30.88,-84.47
1.0,2024-05-10 14:37:48.365387520,0.78,0.22,-0.01,60.49,-30.88,-84.47
1.0,2024-05-10 14:37:48.375197952,0.7708778625954198,0.3203435114503817,-0.17419847328244276,64.21000000000001,-62.08114503816794,-91.2781679389313
1.0,2024-05-10 14:37:48.385194496,0.77,0.33,-0.19,65.73,-74.83,-94.06
1.0,2024-05-10 14:37:48.395127808,0.77,0.33,-0.19,65.73,-74.83,-94.06
1.0,2024-05-10 14:37:48.404909056,0.7847368421052632,0.3668421052631579,-0.19736842105263158,65.73,-74.82999999999998,-94.06
1.0,2024-05-10 14:37:48.414974464,0.93,0.73,-0.27,74.76053435114503,-73.19259541984734,-58.920305343511444
1.0,2024-05-10 14:37:48.425090304,0.93,0.73,-0.27,74.83,-73.18,-58.65
1.0,2024-05-10 14:37:48.435205888,0.93,0.73,-0.27,74.83,-73.18,-58.65
1.0,2024-05-10 14:37:48.445099520,0.93,0.73,-0.27,74.83,-73.18,-58.65
1.0,2024-05-10 14:37:48.455124736,0.7839823008849558,0.866283185840708,-0.3965486725663717,27.512433628318586,-59.70084070796461,-62.43889380530974
1.0,2024-05-10 14:37:48.464750848,0.78,0.87,-0.4,26.0,-59.27,-62.56
1.0,2024-05-10 14:37:48.474786560,0.78,0.87,-0.4,26.0,-59.27,-62.56
1.0,2024-05-10 14:37:48.484700160,0.7713253012048192,0.9242168674698795,-0.39349397590361446,31.970361445783134,-45.939156626506026,-58.70843373493976
1.0,2024-05-10 14:37:48.494900992,0.74,1.12,-0.37,53.53,2.2,-44.8
1.0,2024-05-10 14:37:48.504960512,0.74,1.12,-0.37,53.53,2.2,-44.8
1.0,2024-05-10 14:37:48.515187712,0.74,1.12,-0.37,53.53,2.2,-44.8
1.0,2024-05-10 14:37:48.525106176,0.6957964601769911,1.0512389380530973,-0.42402654867256634,34.87141592920354,-10.41929203539823,-28.146194690265485
1.0,2024-05-10 14:37:48.535026432,0.65,0.98,-0.48000000000000004,8.67,-28.14,-4.76
1.0,2024-05-10 14:37:48.544931840,0.65,0.98,-0.48,8.67,-28.14,-4.76
1.0,2024-05-10 14:37:48.554919936,0.7792635658914729,0.7832945736434108,-0.3451162790697674,-13.083178294573642,-47.40139534883721,-2.88031007751938
1.0,2024-05-10 14:37:48.565407744,0.88,0.63,-0.24,-41.44,-72.51,-0.43
1.0,2024-05-10 14:37:48.575159552,0.88,0.63,-0.24,-41.44,-72.51,-0.43
1.0,2024-05-10 14:37:48.585238016,0.88,0.63,-0.24,-41.44,-72.51,-0.43
1.0,2024-05-10 14:37:48.594899712,0.8344827586206897,0.5237931034482759,-0.3613793103448276,-12.286853448275862,-46.55844827586208,-0.9438362068965517
1.0,2024-05-10 14:37:48.604969728,0.82,0.49,-0.4,10.19,-26.55,-1.34
1.0,2024-05-10 14:37:48.614982144,0.82,0.49,-0.4,10.19,-26.55,-1.34
1.0,2024-05-10 14:37:48.625093120,0.82,0.49,-0.4,10.19,-26.55,-1.34
1.0,2024-05-10 14:37:48.635025152,0.7805371900826447,0.6794214876033058,-0.43157024793388427,8.919586776859504,22.301900826446282,-17.82760330578512
1.0,2024-05-10 14:37:48.645078016,0.77,0.73,-0.44,8.36,43.82,-25.09
1.0,2024-05-10 14:37:48.655426816,0.7596,0.7363999999999999,-0.43279999999999996,8.36,43.82,-25.09
1.0,2024-05-10 14:37:48.665550592,0.64,0.81,-0.35,7.038441558441558,81.05636363636364,-29.802727272727275
1.0,2024-05-10 14:37:48.675187712,0.64,0.81,-0.35,6.77,88.62,-30.76
1.0,2024-05-10 14:37:48.685319680,0.64,0.81,-0.35,6.77,88.62,-30.76
1.0,2024-05-10 14:37:48.695110144,0.6321610169491525,0.8335169491525424,-0.3264830508474576,6.77,88.62,-30.76
1.0,2024-05-10 14:37:48.705141248,0.59,0.96,-0.2,13.976495726495726,88.45538461538462,-10.558034188034188
1.0,2024-05-10 14:37:48.715437568,0.59,0.96,-0.2,14.65,88.44,-8.67
1.0,2024-05-10 14:37:48.725164800,0.59,0.96,-0.2,14.65,88.43999999999998,-8.67
1.0,2024-05-10 14:37:48.735188224,0.6732876712328767,0.9731506849315069,-0.16931506849315067,15.706438356164384,86.79397260273973,-5.459041095890411
1.0,2024-05-10 14:37:48.745633536,0.78,0.99,-0.13,19.47,80.93,5.98
1.0,2024-05-10 14:37:48.755375872,0.78,0.99,-0.13,19.47,80.93,5.98
1.0,2024-05-10 14:37:48.765406208,0.78,0.99,-0.13,19.47,80.93,5.98
1.0,2024-05-10 14:37:48.775427328,0.6986046511627907,0.9045348837209303,-0.22360465116279069,13.051511627906976,73.74058139534884,11.939883720930233
1.0,2024-05-10 14:37:48.785170176,0.58,0.78,-0.36,-13.0,44.56,36.13
1.0,2024-05-10 14:37:48.795114496,0.58,0.78,-0.36,-13.0,44.56,36.13
1.0,2024-05-10 14:37:48.805233920,0.58,0.78,-0.36,-13.0,44.56,36.13
1.0,2024-05-10 14:37:48.815503616,0.9294071146245059,0.9459683794466403,-0.06300395256916996,-11.04703557312253,21.41897233201581,31.282806324110673
1.0,2024-05-10 14:37:48.825210880,0.98,0.97,-0.02,-9.95,8.42,28.56
1.0,2024-05-10 14:37:48.834950656,0.98,0.97,-0.02,-9.95,8.42,28.56
1.0,2024-05-10 14:37:48.844762624,0.98,0.97,-0.02,-9.95,8.42,28.56
1.0,2024-05-10 14:37:48.854983680,0.9002857142857144,0.8238571428571428,-0.10414285714285715,1.6339642857142869,50.732,15.557142857142857
1.0,2024-05-10 14:37:48.865257472,0.8,0.64,-0.21,16.42,104.74,-1.04
1.0,2024-05-10 14:37:48.875122688,0.8,0.64,-0.21,16.42,104.74,-1.04
1.0,2024-05-10 14:37:48.885051136,0.8,0.64,-0.21,16.42,104.74,-1.04
1.0,2024-05-10 14:37:48.894283520,0.8,0.64,-0.21,16.42,104.74,-1.04
1.0,2024-05-10 14:37:48.904989696,0.8,0.64,-0.21,16.42,104.74,-1.04
1.0,2024-05-10 14:37:48.910797056,0.8000000000000002,0.64,-0.21,16.42,104.74,-1.04
1.0,2024-05-10 14:37:48.929387008,0.8388235294117647,0.33294117647058824,-0.0011764705882352936,-83.18764705882353,-13.338823529411764,-27.421176470588236
1.0,2024-05-10 14:37:48.934968832,0.85,0.29,0.03,-94.06,-27.65,-30.76
1.0,2024-05-10 14:37:48.944610048,0.85,0.29,0.03,-94.06,-27.65,-30.76
1.0,2024-05-10 14:37:48.954642176,0.85,0.29,0.03,-94.06,-27.65,-30.76
1.0,2024-05-10 14:37:48.964527872,0.8022784810126582,0.3083544303797468,-0.036075949367088606,-88.14320675105485,-11.854556962025315,-13.26396624472574
1.0,2024-05-10 14:37:48.974419712,0.72,0.34,-0.15,-62.19,57.43,63.48
1.0,2024-05-10 14:37:48.984700160,0.72,0.34,-0.15,-62.19,57.43,63.48
1.0,2024-05-10 14:37:48.994798592,0.72,0.34,-0.15,-62.19,57.43,63.48
1.0,2024-05-10 14:37:49.004901376,1.0276521739130435,0.04243478260869567,0.06182608695652175,-74.36652173913043,65.0713043478261,57.7304347826087
1.0,2024-05-10 14:37:49.014979328,1.33,-0.25,0.27,-91.67,75.93,49.56
1.0,2024-05-10 14:37:49.024871680,1.3300000000000003,-0.25,0.27,-91.67,75.93,49.56000000000001
1.0,2024-05-10 14:37:49.034945280,1.33,-0.25,0.27,-91.67,75.93,49.56
1.0,2024-05-10 14:37:49.044885504,0.49137931034482757,0.10379310344827584,-0.306551724137931,-78.66134099616859,60.21022988505747,121.88122605363985
1.0,2024-05-10 14:37:49.055323904,0.05,0.29,-0.61,-63.84,42.3,204.28
1.0,2024-05-10 14:37:49.065282304,0.05,0.29,-0.61,-63.84,42.3,204.28
1.0,2024-05-10 14:37:49.075331072,0.05,0.29,-0.61,-63.839999999999996,42.3,204.28
1.0,2024-05-10 14:37:49.084668416,0.05,0.29,-0.6099999999999999,-63.84,42.3,204.28000000000003
1.0,2024-05-10 14:37:49.094868736,0.05,0.29,-0.61,-63.84,42.3,204.28
1.0,2024-05-10 14:37:49.105006080,0.05,0.29,-0.6100000000000001,-63.84,42.3,204.28
1.0,2024-05-10 14:37:49.114713600,0.05,0.29,-0.61,-63.84,42.3,204.28
1.0,2024-05-10 14:37:49.124927232,0.05,0.29,-0.61,-63.84,42.3,204.28
1.0,2024-05-10 14:37:49.134796032,0.05000000000000001,0.29,-0.61,-63.84,42.29999999999999,204.28
1.0,2024-05-10 14:37:49.144618240,0.05873949579831933,0.2848319327731092,-0.6034033613445378,-64.00848739495798,42.27613445378151,203.96100840336135
1.0,2024-05-10 14:37:49.154827264,0.7866818181818181,-0.5579999999999999,-0.11945454545454547,-85.96422727272727,35.62490909090909,73.14868181818181
1.0,2024-05-10 14:37:49.164599040,0.98,-0.71,0.1,-164.61,-173.46,-12.15
1.0,2024-05-10 14:37:49.174668288,0.98,-0.71,0.1,-164.61,-173.46,-12.15
1.0,2024-05-10 14:37:49.184655104,0.98,-0.71,0.1,-164.61,-173.46,-12.15
1.0,2024-05-10 14:37:49.194704384,0.98,-0.71,0.1,-164.60999999999999,-173.46,-12.15
1.0,2024-05-10 14:37:49.204858368,1.0170403587443946,-0.8952017937219731,0.025919282511210763,-130.3106278026906,-103.73417040358746,21.990627802690582
1.0,2024-05-10 14:37:49.214534656,1.05,-1.06,-0.04,-99.79,-41.69,52.37
1.0,2024-05-10 14:37:49.225164800,1.0408823529411766,-1.0209243697478991,-0.047815126050420174,-99.79,-41.69,52.37
1.0,2024-05-10 14:37:49.235697664,0.98,-0.76,-0.1,-74.71149193548388,-96.12717741935484,20.53854838709677
1.0,2024-05-10 14:37:49.245478912,0.98,-0.76,-0.1,-71.9,-102.23,16.97
1.0,2024-05-10 14:37:49.255284224,0.9799999999999999,-0.76,-0.1,-71.9,-102.23,16.97
1.0,2024-05-10 14:37:49.265412864,1.0412612612612613,-0.7102252252252251,-0.06936936936936937,-68.19328828828829,-99.71581081081081,14.788288288288289
1.0,2024-05-10 14:37:49.275115008,1.14,-0.63,-0.02,-58.410000000000004,-93.08,9.03
1.0,2024-05-10 14:37:49.284836864,1.14,-0.63,-0.02,-58.41,-93.08,9.03
1.0,2024-05-10 14:37:49.295163136,1.14,-0.63,-0.02,-58.41,-93.08,9.03
1.0,2024-05-10 14:37:49.304803584,1.1972811059907835,-0.6247926267281106,0.06852534562211982,-39.029723502304144,-55.13456221198156,-2.255898617511521
1.0,2024-05-10 14:37:49.314721792,1.25,-0.62,0.15,-10.62,0.49,-18.8
1.0,2024-05-10 14:37:49.324985344,1.25,-0.62,0.15,-10.62,0.49,-18.8
1.0,2024-05-10 14:37:49.335383552,1.25,-0.62,0.15,-10.619999999999997,0.49,-18.8
1.0,2024-05-10 14:37:49.344968704,1.0091031390134528,-0.49246636771300445,0.001210762331838565,-2.177085201793722,36.43654708520179,-13.941300448430493
1.0,2024-05-10 14:37:49.354835456,0.91,-0.44,-0.06,8.79,83.13,-7.63
1.0,2024-05-10 14:37:49.364676352,0.91,-0.44,-0.06,8.79,83.13,-7.63
1.0,2024-05-10 14:37:49.374733568,0.91,-0.44,-0.06,8.79,83.13,-7.63
1.0,2024-05-10 14:37:49.384996096,0.8850617283950617,-0.5148148148148148,-0.03506172839506173,-5.216995884773664,-4.544650205761317,-31.628930041152262
1.0,2024-05-10 14:37:49.394663168,0.88,-0.53,-0.03,-8.06,-22.34,-36.5
1.0,2024-05-10 14:37:49.405044736,0.88,-0.53,-0.03,-8.06,-22.34,-36.5
1.0,2024-05-10 14:37:49.415004928,0.8986486486486487,-0.5154954954954956,-0.025855855855855855,-3.4142342342342342,-20.325315315315315,-35.247387387387384
1.0,2024-05-10 14:37:49.425215488,0.97,-0.46,-0.01,38.82,-2.01,-23.86
1.0,2024-05-10 14:37:49.435081216,0.97,-0.46,-0.01,38.82,-2.01,-23.86
1.0,2024-05-10 14:37:49.445163520,0.97,-0.46,-0.01,38.82,-2.01,-23.86
1.0,2024-05-10 14:37:49.454933504,0.9906607929515419,-0.4452422907488987,-0.04246696035242291,29.21502202643172,-12.006299559471366,-17.770704845814976
1.0,2024-05-10 14:37:49.465033472,1.04,-0.41,-0.12,-7.57,-50.29,5.55
1.0,2024-05-10 14:37:49.475226112,1.04,-0.41,-0.12,-7.57,-50.29,5.55
1.0,2024-05-10 14:37:49.485287680,1.04,-0.41,-0.11999999999999998,-7.570000000000001,-50.29,5.55
1.0,2024-05-10 14:37:49.495114496,1.121121076233184,-0.4640807174887892,-0.0779372197309417,-9.955470852017937,-27.799686098654707,10.320941704035874
1.0,2024-05-10 14:37:49.505008640,1.31,-0.59,0.020000000000000004,-15.63,25.7,21.67
1.0,2024-05-10 14:37:49.514648064,1.31,-0.59,0.02,-15.63,25.7,21.67
1.0,2024-05-10 14:37:49.524820992,1.31,-0.59,0.02,-15.63,25.7,21.67
1.0,2024-05-10 14:37:49.534797568,1.2025941422594142,-0.6658158995815899,-0.08108786610878663,-9.31878661087866,16.84744769874477,15.904309623430963
1.0,2024-05-10 14:37:49.544813056,1.14,-0.71,-0.14,-1.4,5.74,8.67
1.0,2024-05-10 14:37:49.554923264,1.14,-0.71,-0.14,-1.4,5.740000000000001,8.67
1.0,2024-05-10 14:37:49.565302016,1.14,-0.71,-0.14,-1.4,5.74,8.67
1.0,2024-05-10 14:37:49.575022592,1.14,-0.8029439252336448,-0.04705607476635514,5.69481308411215,18.589018691588787,22.755560747663548
1.0,2024-05-10 14:37:49.584561408,1.14,-0.84,-0.01,10.19,26.73,31.679999999999996
1.0,2024-05-10 14:37:49.594548480,1.14,-0.84,-0.01,10.19,26.73,31.68
1.0,2024-05-10 14:37:49.604804608,1.14,-0.84,-0.01,10.19,26.73,31.68
1.0,2024-05-10 14:37:49.614974720,1.0350602409638554,-0.9610843373493976,-0.12301204819277108,24.847871485943774,-15.302650602409637,32.334176706827314
1.0,2024-05-10 14:37:49.624885760,1.01,-0.99,-0.15,30.58,-31.74,32.59
1.0,2024-05-10 14:37:49.634945024,1.01,-0.99,-0.15,30.58,-31.74,32.59
1.0,2024-05-10 14:37:49.644571136,1.01,-0.99,-0.15,30.58,-31.74,32.59
1.0,2024-05-10 14:37:49.654743296,0.921875,-0.6277083333333333,-0.08145833333333334,64.08345833333333,47.506125000000004,-15.318000000000001
1.0,2024-05-10 14:37:49.664711680,0.92,-0.62,-0.08,70.19,61.95,-24.05
1.0,2024-05-10 14:37:49.674641664,0.92,-0.62,-0.08,70.19,61.95,-24.05
1.0,2024-05-10 14:37:49.684573184,0.8870886075949368,-0.6331645569620253,-0.09316455696202533,69.89590717299578,61.13725738396625,-24.269409282700423
1.0,2024-05-10 14:37:49.694786048,0.62,-0.74,-0.2,35.34,-34.36,-50.05
1.0,2024-05-10 14:37:49.705251328,0.62,-0.74,-0.2,35.34,-34.36,-50.05
1.0,2024-05-10 14:37:49.715375872,0.62,-0.74,-0.2,35.34,-34.36,-50.05
1.0,2024-05-10 14:37:49.724800256,0.6583478260869565,-0.719,-0.17717391304347826,40.96086956521739,-32.48695652173913,-55.256086956521735
1.0,2024-05-10 14:37:49.734926848,1.04,-0.51,0.05,99.98,-12.82,-109.92
1.0,2024-05-10 14:37:49.744913664,1.04,-0.51,0.05,99.98,-12.82,-109.92
1.0,2024-05-10 14:37:49.754841600,1.04,-0.51,0.05,99.98,-12.82,-109.92
1.0,2024-05-10 14:37:49.765146624,0.8752212389380531,-0.436283185840708,-0.028053097345132744,94.64194690265488,-2.5332743362831867,-104.47575221238938
1.0,2024-05-10 14:37:49.775005952,0.66,-0.34,-0.13,84.9,16.24,-94.54
1.0,2024-05-10 14:37:49.784679168,0.66,-0.34,-0.13,84.9,16.24,-94.54
1.0,2024-05-10 14:37:49.795236352,0.66,-0.34,-0.13,84.9,16.24,-94.54
1.0,2024-05-10 14:37:49.805058560,0.7553333333333333,-0.30100000000000005,-0.06066666666666667,79.23504166666666,5.068083333333332,-104.74745833333333
1.0,2024-05-10 14:37:49.815087360,0.88,-0.25,0.03,67.69,-17.7,-125.55
1.0,2024-05-10 14:37:49.824945920,0.88,-0.25,0.03,67.69,-17.7,-125.55
1.0,2024-05-10 14:37:49.835157504,0.88,-0.25,0.03,67.69,-17.7,-125.55
1.0,2024-05-10 14:37:49.845085696,0.7573109243697479,-0.09663865546218488,-0.10495798319327732,82.52361344537815,-20.745378151260503,-109.26932773109243
1.0,2024-05-10 14:37:49.855292928,0.68,0.0,-0.19,97.11,-23.74,-93.26
1.0,2024-05-10 14:37:49.865395456,0.68,0.0,-0.19,97.11,-23.74,-93.26
1.0,2024-05-10 14:37:49.875415296,0.68,0.0,-0.19,97.11,-23.74,-93.26
1.0,2024-05-10 14:37:49.885134336,0.9674074074074075,0.1117695473251029,-0.07823045267489713,79.03123456790124,-55.86600823045267,-118.30831275720163
1.0,2024-05-10 14:37:49.895229440,1.04,0.14,-0.05,67.02,-77.21,-134.95
1.0,2024-05-10 14:37:49.905430016,1.04,0.14,-0.05,67.02,-77.21,-134.95
1.0,2024-05-10 14:37:49.915531520,1.04,0.14,-0.05,67.02,-77.21,-134.95
1.0,2024-05-10 14:37:49.925317376,0.8138818565400845,0.42510548523206754,-0.25645569620253167,30.56683544303797,-36.432784810126584,-92.11708860759494
1.0,2024-05-10 14:37:49.935461120,0.81,0.43,-0.26,25.88,-31.19,-86.61
1.0,2024-05-10 14:37:49.944797184,0.8099999999999999,0.43,-0.26,25.88,-31.19,-86.61
1.0,2024-05-10 14:37:49.954381568,0.8115873015873016,0.42746031746031743,-0.25396825396825395,23.188571428571425,-33.08873015873016,-87.09063492063493
1.0,2024-05-10 14:37:49.964896768,0.86,0.35,-0.07,-58.9,-91.0,-101.75
1.0,2024-05-10 14:37:49.975078144,0.86,0.35,-0.07,-58.9,-91.0,-101.75
1.0,2024-05-10 14:37:49.984969216,0.86,0.35,-0.07,-58.9,-91.0,-101.75
1.0,2024-05-10 14:37:49.995026688,0.8561504424778762,0.37309734513274334,-0.05331858407079646,-58.9,-91.0,-101.75
1.0,2024-05-10 14:37:50.005006336,0.83,0.53,0.06,-20.799169811320755,-50.59728301886792,-113.32388679245283
1.0,2024-05-10 14:37:50.015113728,0.83,0.53,0.06,-17.52,-47.12,-114.32
1.0,2024-05-10 14:37:50.025160448,0.83,0.53,0.060000000000000005,-17.52,-47.12,-114.32
1.0,2024-05-10 14:37:50.034643968,0.83,0.53,0.05999999999999999,-17.52,-47.12,-114.32
1.0,2024-05-10 14:37:50.044685056,0.83,0.53,0.06,-17.52,-47.12,-114.32
1.0,2024-05-10 14:37:50.055153152,0.7016858237547894,0.7488888888888888,-0.00038314176245210816,27.079386973180075,-19.432183908045978,-92.86513409961685
1.0,2024-05-10 14:37:50.064993280,0.66,0.82,-0.019999999999999997,41.87,-10.25,-85.75
1.0,2024-05-10 14:37:50.074788096,0.6475665399239544,0.8697338403041824,-0.03657794676806083,36.725893536121674,-14.933346007604563,-85.59851711026616
1.0,2024-05-10 14:37:50.085068288,0.63,0.94,-0.06,25.570000000000004,-25.09,-85.27
1.0,2024-05-10 14:37:50.094533120,0.63,0.94,-0.06,25.57,-25.09,-85.27
1.0,2024-05-10 14:37:50.105168640,0.63,0.94,-0.06,25.57,-25.09,-85.27
1.0,2024-05-10 14:37:50.115338496,0.63,0.9576623376623377,-0.06441558441558441,26.311818181818182,-32.01584415584416,-84.02922077922078
1.0,2024-05-10 14:37:50.124878592,0.63,1.02,-0.08000000000000002,28.93,-56.46000000000001,-79.65
1.0,2024-05-10 14:37:50.135136000,0.63,1.02,-0.08,28.93,-56.46,-79.65
1.0,2024-05-10 14:37:50.145092864,0.63,1.02,-0.08,28.930000000000003,-56.46,-79.65
1.0,2024-05-10 14:37:50.154615296,0.5252542372881356,1.033093220338983,-0.2763983050847458,59.58186440677966,-29.89677966101695,-56.06898305084746
1.0,2024-05-10 14:37:50.164794368,0.39,1.05,-0.53,99.85,5.0,-25.09
1.0,2024-05-10 14:37:50.171570944,0.39,1.05,-0.53,99.85,5.0,-25.09
