id,timestamp,acc_x,acc_y,acc_z,gyro_x,gyro_y,gyro_z
1.0,2024-05-10 14:37:25.348311808,1.7800000000000002,-1.13,0.17,-57.5,-180.18,106.69
1.0,2024-05-10 14:37:25.355010304,1.3912295081967212,-0.6722540983606557,-0.02438524590163935,-29.320573770491805,22.72852459016393,91.75709016393442
1.0,2024-05-10 14:37:25.364934144,1.16,-0.4,-0.14,-3.36,209.66,78.0
1.0,2024-05-10 14:37:25.375043072,1.16,-0.4,-0.14,-3.36,209.66,78.0
1.0,2024-05-10 14:37:25.385062912,1.16,-0.4,-0.14,-3.36,209.66,78.0
1.0,2024-05-10 14:37:25.394953984,1.0424489795918368,-0.4862040816326531,-0.006775510204081637,5.753428571428571,120.3729387755102,24.04195918367347
1.0,2024-05-10 14:37:25.404825600,1.01,-0.51,0.03,10.01,78.67,-1.16
1.0,2024-05-10 14:37:25.414687232,1.01,-0.51,0.03,10.01,78.67,-1.16
1.0,2024-05-10 14:37:25.424815360,1.01,-0.51,0.03,10.01,78.67,-1.16
1.0,2024-05-10 14:37:25.435020032,0.7750381679389313,-0.33595419847328245,-0.18755725190839695,21.679427480916033,28.571259541984734,6.843473282442749
1.0,2024-05-10 14:37:25.445207040,0.74,-0.31,-0.22,24.78,15.26,8.97
1.0,2024-05-10 14:37:25.455018240,0.7399999999999999,-0.31,-0.22,24.78,15.26,8.97
1.0,2024-05-10 14:37:25.464685568,0.74,-0.31,-0.22,24.780000000000005,15.26,8.97
1.0,2024-05-10 14:37:25.475081984,1.040414937759336,-0.3024896265560166,-0.024730290456431533,-11.2349377593361,5.550456431535269,10.202365145228216
1.0,2024-05-10 14:37:25.484884736,1.14,-0.3,0.04,-23.44,2.26,10.62
1.0,2024-05-10 14:37:25.494654976,1.14,-0.3,0.04,-23.44,2.26,10.62
1.0,2024-05-10 14:37:25.505252864,1.1280459770114941,-0.3194252873563218,0.035517241379310345,-22.674022988505747,3.16007662835249,9.988122605363984
1.0,2024-05-10 14:37:25.515463936,1.06,-0.43,0.01,-9.16,19.04,-1.16
1.0,2024-05-10 14:37:25.525339136,1.06,-0.43,0.01,-9.16,19.04,-1.16
1.0,2024-05-10 14:37:25.535067648,1.06,-0.43000000000000005,0.009999999999999998,-9.16,19.04,-1.16
1.0,2024-05-10 14:37:25.544541440,1.0341538461538462,-0.3750769230769231,0.0003076923076923077,-8.452,26.292,1.2820000000000003
1.0,2024-05-10 14:37:25.554835968,0.98,-0.26,-0.02,-5.62,55.3,11.05
1.0,2024-05-10 14:37:25.561019392,0.98,-0.26,-0.02,-5.62,55.3,11.05
1.0,2024-05-10 14:37:25.575843072,0.9799999999999999,-0.26,-0.02,-5.62,55.3,11.05
1.0,2024-05-10 14:37:25.585173760,0.9962637362637363,-0.3575824175824176,0.01794871794871795,-24.613406593406594,36.62747252747253,21.621428571428574
1.0,2024-05-10 14:37:25.595278336,1.01,-0.44,0.05,-48.83,12.82,35.1
1.0,2024-05-10 14:37:25.605046016,1.01,-0.44,0.05,-48.83,12.82,35.1
1.0,2024-05-10 14:37:25.614884352,1.01,-0.44,0.05,-48.83,12.82,35.1
1.0,2024-05-10 14:37:25.624673024,1.0459839357429719,-0.4657028112449799,-0.0014056224899598394,-39.56493975903614,16.73967871485944,30.465461847389555
1.0,2024-05-10 14:37:25.634693376,1.08,-0.49,-0.05,-25.76,22.58,23.56
1.0,2024-05-10 14:37:25.644472576,1.08,-0.49000000000000005,-0.05,-25.76,22.58,23.56
1.0,2024-05-10 14:37:25.654697216,1.08,-0.49,-0.05,-25.76,22.58,23.56
1.0,2024-05-10 14:37:25.664660736,1.2251351351351352,-0.5591119691119691,0.032934362934362936,-20.49034749034749,-34.86266409266409,0.7037451737451722
1.0,2024-05-10 14:37:25.674769408,1.29,-0.59,0.07,-16.6,-77.27,-16.17
1.0,2024-05-10 14:37:25.684673024,1.29,-0.59,0.07,-16.6,-77.27,-16.17
1.0,2024-05-10 14:37:25.694774784,1.29,-0.59,0.07,-16.6,-77.27,-16.17
1.0,2024-05-10 14:37:25.704949504,1.2619753086419754,-0.7581481481481481,0.051316872427983544,1.405925925925925,-11.736296296296297,-6.882962962962964
1.0,2024-05-10 14:37:25.715197952,1.26,-0.77,0.05,8.12,12.7,-3.42
1.0,2024-05-10 14:37:25.725048576,1.26,-0.77,0.05,8.12,12.7,-3.42
1.0,2024-05-10 14:37:25.734937600,1.245897435897436,-0.7765811965811966,0.029316239316239317,8.12,12.7,-3.42
1.0,2024-05-10 14:37:25.744925696,1.11,-0.84,-0.17,62.56727272727272,-19.700287081339713,-43.33875598086125
1.0,2024-05-10 14:37:25.754690304,1.11,-0.84,-0.17,78.8,-29.36,-55.24
1.0,2024-05-10 14:37:25.764761088,1.11,-0.84,-0.17,78.8,-29.36,-55.24
1.0,2024-05-10 14:37:25.774924800,1.1800361010830325,-0.8329963898916967,-0.15949458483754514,78.21429602888087,-3.58057761732852,-47.04014440433213
1.0,2024-05-10 14:37:25.785363968,1.31,-0.82,-0.14,76.72,62.19,-26.12
1.0,2024-05-10 14:37:25.795247104,1.31,-0.82,-0.14,76.72,62.19,-26.12
1.0,2024-05-10 14:37:25.805068800,1.31,-0.82,-0.14,76.72,62.19,-26.12
1.0,2024-05-10 14:37:25.814811392,1.2265250965250967,-0.80003861003861,-0.17992277992277994,75.13081081081081,56.89702702702703,-28.35969111969112
1.0,2024-05-10 14:37:25.825010432,0.85,-0.71,-0.36,59.57,5.07,-50.29
1.0,2024-05-10 14:37:25.835208448,0.85,-0.71,-0.36,59.57,5.07,-50.29
1.0,2024-05-10 14:37:25.845015296,0.85,-0.71,-0.36,59.57,5.07,-50.29
1.0,2024-05-10 14:37:25.854821632,1.0383266932270916,-0.8398804780876494,-0.12621513944223106,38.614780876494024,7.063625498007968,-44.61370517928287
1.0,2024-05-10 14:37:25.864615680,1.14,-0.91,0.0,21.73,8.67,-40.04
1.0,2024-05-10 14:37:25.874843392,1.14,-0.91,0.0,21.73,8.67,-40.04
1.0,2024-05-10 14:37:25.885157888,1.14,-0.91,0.0,21.73,8.67,-40.04
1.0,2024-05-10 14:37:25.894888448,0.7424999999999999,-0.7455172413793104,-0.2261637931034483,35.69068965517241,-5.9801724137931025,-15.213275862068965
1.0,2024-05-10 14:37:25.905032704,0.56,-0.67,-0.33,47.85,-18.74,6.41
1.0,2024-05-10 14:37:25.915059200,0.56,-0.67,-0.33,47.85,-18.74,6.41
1.0,2024-05-10 14:37:25.925213184,0.56,-0.67,-0.33,47.85,-18.74,6.41
1.0,2024-05-10 14:37:25.935383552,0.83875,-0.5219140625,-0.016406250000000004,75.03371093749999,-12.288046875,-31.734257812499997
1.0,2024-05-10 14:37:25.944839168,0.88,-0.5,0.03,82.82,-10.44,-42.66
1.0,2024-05-10 14:37:25.954614528,0.88,-0.5,0.03,82.82,-10.44,-42.66
1.0,2024-05-10 14:37:25.964954880,0.88,-0.5,0.030000000000000002,82.82,-10.44,-42.66
1.0,2024-05-10 14:37:25.975267584,0.4577857142857143,-0.3715,-0.20864285714285716,104.07857142857142,-17.553571428571427,-63.269642857142856
1.0,2024-05-10 14:37:25.985340160,0.42,-0.36,-0.23,108.7,-19.1,-67.75
1.0,2024-05-10 14:37:25.994910464,0.42,-0.36,-0.23,108.7,-19.1,-67.75
1.0,2024-05-10 14:37:26.005274624,0.42179591836734687,-0.3582448979591837,-0.22942857142857143,108.7,-19.1,-67.75
1.0,2024-05-10 14:37:26.015376128,0.8599999999999999,0.07,-0.09,130.3696551724138,-44.55310344827586,-78.75068965517241
1.0,2024-05-10 14:37:26.024990464,0.86,0.07,-0.09,132.87,-47.49,-80.02
1.0,2024-05-10 14:37:26.035107328,0.86,0.07,-0.09,132.87,-47.49,-80.02
1.0,2024-05-10 14:37:26.045006592,0.8608943089430894,0.07894308943089431,-0.09268292682926829,132.87,-47.49,-80.02
1.0,2024-05-10 14:37:26.054861312,0.88,0.27,-0.15,133.76457831325303,-19.59,-115.02783132530121
1.0,2024-05-10 14:37:26.065071616,0.88,0.27,-0.15,134.52,3.9700000000000006,-144.59
1.0,2024-05-10 14:37:26.075003648,0.88,0.2700000000000001,-0.15,134.52,3.97,-144.59
1.0,2024-05-10 14:37:26.084912896,0.8544680851063831,0.3097163120567376,-0.17836879432624111,134.52,3.9699999999999998,-144.59
1.0,2024-05-10 14:37:26.095089408,0.79,0.41,-0.25,160.88117647058823,1.718235294117647,-169.41764705882352
1.0,2024-05-10 14:37:26.104925696,0.79,0.41,-0.25,161.68,1.65,-170.17
1.0,2024-05-10 14:37:26.115157760,0.79,0.41,-0.25,161.68,1.65,-170.17
1.0,2024-05-10 14:37:26.125159680,0.79,0.41,-0.25,161.68,1.65,-170.17
1.0,2024-05-10 14:37:26.135199744,0.8029565217391305,0.5589999999999999,-0.3925217391304348,216.7038260869565,-7.461652173913044,-160.03521739130434
1.0,2024-05-10 14:37:26.144892160,0.81,0.64,-0.47,247.19,-12.51,-154.42
1.0,2024-05-10 14:37:26.154939136,0.81,0.64,-0.47,247.19000000000003,-12.51,-154.42
1.0,2024-05-10 14:37:26.165096448,0.8322222222222223,0.7214814814814815,-0.5292592592592592,241.76592592592593,-25.858148148148146,-158.05888888888887
1.0,2024-05-10 14:37:26.174931712,0.93,1.08,-0.79,217.9,-84.59,-174.07
1.0,2024-05-10 14:37:26.185265920,0.93,1.08,-0.79,217.9,-84.59,-174.07
1.0,2024-05-10 14:37:26.195020032,0.9300000000000002,1.08,-0.79,217.9,-84.59,-174.07
1.0,2024-05-10 14:37:26.204870400,0.7259245283018868,1.1113962264150943,-0.978377358490566,169.4163773584906,-74.24494339622642,-159.48252830188682
1.0,2024-05-10 14:37:26.215348480,0.41,1.16,-1.27,94.36,-58.23,-136.9
1.0,2024-05-10 14:37:26.225042176,0.41,1.16,-1.27,94.36,-58.23,-136.9
1.0,2024-05-10 14:37:26.235290624,0.41,1.16,-1.27,94.36,-58.23,-136.9
1.0,2024-05-10 14:37:26.245085184,0.2938427947598253,0.9915720524017467,-1.0260698689956331,54.97689956331878,-54.965982532751084,-92.16786026200874
1.0,2024-05-10 14:37:26.254496256,0.21,0.87,-0.85,26.55,-52.61,-59.88
1.0,2024-05-10 14:37:26.264677888,0.21,0.87,-0.85,26.55,-52.61,-59.88
1.0,2024-05-10 14:37:26.274785280,0.22987603305785123,0.8710743801652893,-0.8371074380165289,26.55,-52.60999999999999,-59.88
1.0,2024-05-10 14:37:26.284783360,0.58,0.89,-0.61,-89.83911290322581,-82.4841935483871,36.152661290322584
1.0,2024-05-10 14:37:26.294597888,0.58,0.89,-0.61,-110.9,-87.89,53.53
1.0,2024-05-10 14:37:26.305065984,0.58,0.89,-0.61,-110.9,-87.89,53.53
1.0,2024-05-10 14:37:26.315290112,0.58,0.89,-0.61,-110.9,-87.89,53.53
1.0,2024-05-10 14:37:26.325312768,0.7324621212121212,0.618219696969697,-0.37799242424242424,-107.68348484848485,-54.99333333333333,49.09787878787879
1.0,2024-05-10 14:37:26.335309056,0.81,0.48,-0.26,-104.92,-26.73,45.29
1.0,2024-05-10 14:37:26.345101056,0.81,0.48,-0.26,-104.92,-26.73,45.29
1.0,2024-05-10 14:37:26.355289856,0.8296946564885496,0.44717557251908396,-0.23045801526717558,-94.02076335877864,-20.724160305343513,42.31973282442748
1.0,2024-05-10 14:37:26.365369856,0.87,0.38,-0.17,-56.52,-0.06,32.1
1.0,2024-05-10 14:37:26.375488256,0.87,0.38,-0.17,-56.52,-0.060000000000000005,32.1
1.0,2024-05-10 14:37:26.385356288,0.87,0.38,-0.17,-56.52,-0.06,32.1
1.0,2024-05-10 14:37:26.395133952,0.87,0.38602272727272724,-0.22420454545454546,-24.92537878787879,8.108257575757575,14.248181818181818
1.0,2024-05-10 14:37:26.404988416,0.87,0.39,-0.26,0.61,14.71,-0.18
1.0,2024-05-10 14:37:26.414640128,0.87,0.39,-0.26,0.61,14.71,-0.18
1.0,2024-05-10 14:37:26.424930560,0.87,0.39,-0.26,0.61,14.71,-0.18
1.0,2024-05-10 14:37:26.434931200,0.8155252918287937,0.5125680933852139,-0.41661478599221785,2.490194552529183,19.033385214007783,-0.8527626459143969
1.0,2024-05-10 14:37:26.444891136,0.79,0.57,-0.49,5.92,26.92,-2.08
1.0,2024-05-10 14:37:26.454824192,0.79,0.57,-0.49,5.92,26.92,-2.08
1.0,2024-05-10 14:37:26.465326848,0.79,0.57,-0.49,5.92,26.92,-2.08
1.0,2024-05-10 14:37:26.475458560,0.7636585365853659,0.7631707317073171,-0.4460975609756097,-17.30280487804878,41.99036585365853,12.237235772357723
1.0,2024-05-10 14:37:26.484958208,0.76,0.79,-0.44,-23.99,46.33,16.36
1.0,2024-05-10 14:37:26.494739968,0.76,0.79,-0.44,-23.99,46.33,16.36
1.0,2024-05-10 14:37:26.505195008,0.76,0.79,-0.44,-23.99,46.33,16.36
1.0,2024-05-10 14:37:26.515630848,0.710968992248062,1.0547674418604651,-0.4203875968992248,-2.3034883720930233,70.43790697674419,29.46558139534884
1.0,2024-05-10 14:37:26.525056000,0.71,1.06,-0.42,0.55,73.61,31.19
1.0,2024-05-10 14:37:26.535068160,0.71,1.06,-0.42,0.55,73.61,31.19
1.0,2024-05-10 14:37:26.545024000,0.71,1.06,-0.42,0.55,73.61,31.19
1.0,2024-05-10 14:37:26.555101952,0.7386530612244898,1.3560816326530614,-0.25763265306122446,30.974163265306125,158.69555102040815,17.72583673469388
1.0,2024-05-10 14:37:26.565331200,0.74,1.37,-0.25,35.71,171.94,15.63
1.0,2024-05-10 14:37:26.574680576,0.74,1.37,-0.25,35.71,171.94,15.63
1.0,2024-05-10 14:37:26.584587776,0.6757480314960629,1.3258267716535435,-0.28078740157480314,35.71,171.94,15.63
1.0,2024-05-10 14:37:26.595081216,0.26,1.04,-0.48,-15.131290322580643,111.25302419354838,76.54967741935484
1.0,2024-05-10 14:37:26.604922880,0.26,1.04,-0.48,-27.65,96.31,91.55
1.0,2024-05-10 14:37:26.614893312,0.26,1.04,-0.48,-27.65,96.31,91.55
1.0,2024-05-10 14:37:26.624953856,0.5144573643410854,0.953875968992248,-0.46042635658914727,-63.37143410852713,60.042403100775196,98.69189922480619
1.0,2024-05-10 14:37:26.635043072,0.91,0.82,-0.43,-147.34,-25.21,115.48
1.0,2024-05-10 14:37:26.644934656,0.91,0.82,-0.43,-147.34,-25.21,115.48
1.0,2024-05-10 14:37:26.655343360,0.91,0.82,-0.43,-147.34,-25.21,115.48
1.0,2024-05-10 14:37:26.665411072,0.9666536964980545,0.6712840466926069,-0.43,-154.86217898832686,-29.142684824902723,68.54342412451362
1.0,2024-05-10 14:37:26.675312896,1.07,0.4,-0.43,-168.82,-36.44,-18.55
1.0,2024-05-10 14:37:26.685466112,1.07,0.4,-0.43,-168.82,-36.44,-18.55
1.0,2024-05-10 14:37:26.695305984,1.07,0.4,-0.42999999999999994,-168.82,-36.44,-18.55
1.0,2024-05-10 14:37:26.704874496,0.9222881355932203,0.5336440677966101,-0.4088983050847458,-138.60728813559322,-31.005254237288135,-6.007203389830509
1.0,2024-05-10 14:37:26.714901248,0.86,0.59,-0.4,-104.0,-24.78,8.36
1.0,2024-05-10 14:37:26.725294336,0.86,0.59,-0.4,-104.0,-24.78,8.36
1.0,2024-05-10 14:37:26.735473664,0.86,0.59,-0.4,-104.0,-24.78,8.36
1.0,2024-05-10 14:37:26.744935168,1.0326482213438735,0.11316205533596838,-0.25201581027667985,-115.70924901185771,38.29209486166008,11.486166007905139
1.0,2024-05-10 14:37:26.755032576,1.07,0.01,-0.22,-122.99,77.51,13.43
1.0,2024-05-10 14:37:26.765110272,1.07,0.01,-0.22,-122.99,77.51,13.43
1.0,2024-05-10 14:37:26.774991872,1.07,0.01,-0.22,-122.99000000000001,77.50999999999999,13.43
1.0,2024-05-10 14:37:26.784675328,0.5439299610894941,0.38229571984435795,-0.5599221789883269,-178.9213618677043,-180.22891050583658,16.715914396887158
1.0,2024-05-10 14:37:26.794789376,0.42,0.47,-0.64,-201.97,-286.44,18.07
1.0,2024-05-10 14:37:26.804806144,0.42,0.47,-0.64,-201.97,-286.44,18.070000000000004
1.0,2024-05-10 14:37:26.815043328,0.42,0.47,-0.64,-201.97,-286.44,18.07
1.0,2024-05-10 14:37:26.825284608,1.698512396694215,-0.7200000000000001,0.294297520661157,-42.73148760330579,6.272479338842979,74.13404958677685
1.0,2024-05-10 14:37:26.835105536,1.7199999999999998,-0.74,0.30999999999999994,-10.25,65.98,85.57
1.0,2024-05-10 14:37:26.845375488,1.5752631578947367,-0.6268421052631579,0.20824561403508773,-10.25,65.98,85.57
1.0,2024-05-10 14:37:26.855280896,0.07,0.55,-0.85,2.715919282511211,98.18143497757848,104.40340807174887
1.0,2024-05-10 14:37:26.864684800,0.07,0.55,-0.85,5.55,105.22,108.52
1.0,2024-05-10 14:37:26.874486272,0.07,0.55,-0.85,5.55,105.22,108.52
1.0,2024-05-10 14:37:26.884614912,0.27098814229249013,0.34545454545454546,-0.6721343873517786,-3.4352964426877475,80.26569169960474,96.00774703557312
1.0,2024-05-10 14:37:26.894751488,1.2,-0.6,0.15,-89.17,-157.84,-23.38
1.0,2024-05-10 14:37:26.904786176,1.2,-0.6,0.15,-89.17,-157.84,-23.38
1.0,2024-05-10 14:37:26.915061248,1.2,-0.6,0.15,-89.17,-157.84,-23.38
1.0,2024-05-10 14:37:26.924881664,1.0289803921568628,-0.6418823529411765,-0.0419607843137255,-80.79964705882352,-122.51388235294118,-1.0359999999999976
1.0,2024-05-10 14:37:26.935061504,0.71,-0.72,-0.4,-12.94,163.88,180.11
1.0,2024-05-10 14:37:26.945332736,0.71,-0.72,-0.4,-12.94,163.88,180.11
1.0,2024-05-10 14:37:26.955221248,0.71,-0.72,-0.4,-12.94,163.88,180.11
1.0,2024-05-10 14:37:26.965113344,0.8775555555555555,-0.7257777777777779,-0.36533333333333334,-41.589444444444446,59.132777777777775,141.1861111111111
1.0,2024-05-10 14:37:26.975428352,1.0,-0.73,-0.34,-86.61,-105.47,80.02
1.0,2024-05-10 14:37:26.985018880,1.0,-0.73,-0.34,-86.61,-105.47,80.02
1.0,2024-05-10 14:37:26.994841088,1.0,-0.73,-0.34,-86.61,-105.47,80.02
1.0,2024-05-10 14:37:27.004960256,1.3646067415730339,-0.8692134831460674,-0.22067415730337078,-62.358314606741565,-79.13292134831461,83.30988764044945
1.0,2024-05-10 14:37:27.015059968,1.55,-0.94,-0.16,-46.14,-61.52,85.51
1.0,2024-05-10 14:37:27.025028864,1.55,-0.94,-0.16,-46.14,-61.52,85.51
1.0,2024-05-10 14:37:27.035155456,1.55,-0.94,-0.16,-46.14,-61.52,85.51
1.0,2024-05-10 14:37:27.045077248,1.0775590551181102,-0.5069291338582677,-0.03401574803149607,-37.2448031496063,60.40413385826771,68.88429133858268
1.0,2024-05-10 14:37:27.054986752,0.95,-0.39,0.0,-33.08,117.49000000000001,61.1
1.0,2024-05-10 14:37:27.064636672,0.95,-0.38999999999999996,0.0,-33.08,117.49,61.10000000000001
1.0,2024-05-10 14:37:27.075103488,0.95,-0.39,0.0,-33.08,117.49,61.1
1.0,2024-05-10 14:37:27.085165824,0.795265306122449,-0.4992244897959184,-0.009102040816326531,-1.2922448979591832,57.604285714285716,23.581632653061224
1.0,2024-05-10 14:37:27.094903040,0.78,-0.51,-0.01,5.86,44.13,15.14
1.0,2024-05-10 14:37:27.104839680,0.78,-0.51,-0.01,5.86,44.13,15.14
1.0,2024-05-10 14:37:27.115233536,0.7884758364312269,-0.4647955390334573,-0.05802973977695167,14.249405204460967,36.93122676579926,13.335092936802976
1.0,2024-05-10 14:37:27.125047552,0.81,-0.35,-0.18,50.11,6.16,5.62
1.0,2024-05-10 14:37:27.134966016,0.81,-0.35,-0.18,50.11,6.16,5.62
1.0,2024-05-10 14:37:27.144748032,0.81,-0.35,-0.18,50.11,6.16,5.62
1.0,2024-05-10 14:37:27.154667776,0.81,-0.35,-0.18,50.11,6.16,5.62
1.0,2024-05-10 14:37:27.165102080,0.8523616236162362,-0.31369003690036895,-0.22236162361623615,22.869151291512914,-4.227490774907748,9.252915129151292
1.0,2024-05-10 14:37:27.175309056,0.88,-0.29,-0.25,4.82,-11.11,11.66
1.0,2024-05-10 14:37:27.185013248,0.88,-0.29,-0.25,4.82,-11.11,11.66
1.0,2024-05-10 14:37:27.194564608,0.9395275590551182,-0.3240157480314961,-0.15645669291338585,1.414173228346457,8.081259842519687,10.31744094488189
1.0,2024-05-10 14:37:27.204889088,1.02,-0.37,-0.029999999999999995,-5.86,49.07,7.45
1.0,2024-05-10 14:37:27.215118592,1.02,-0.37,-0.03,-5.86,49.07,7.45
1.0,2024-05-10 14:37:27.225380096,1.02,-0.37,-0.03,-5.86,49.07,7.45
1.0,2024-05-10 14:37:27.235010816,0.9768421052631578,-0.35150375939849626,-0.06082706766917293,-8.815263157894737,42.30947368421052,13.215789473684211
1.0,2024-05-10 14:37:27.245122304,0.95,-0.34,-0.08,-17.09,23.38,29.36
1.0,2024-05-10 14:37:27.255130368,0.95,-0.34,-0.08,-17.09,23.38,29.36
1.0,2024-05-10 14:37:27.264986880,0.95,-0.34,-0.08,-17.09,23.38,29.36
1.0,2024-05-10 14:37:27.274963968,1.0911320754716982,-0.4230188679245283,-0.07169811320754717,-12.371509433962263,24.593584905660375,20.29433962264151
1.0,2024-05-10 14:37:27.284797952,1.12,-0.44,-0.07,-1.46,27.4,-0.67
1.0,2024-05-10 14:37:27.294479360,1.12,-0.44,-0.07,-1.46,27.4,-0.67
1.0,2024-05-10 14:37:27.305120000,1.1294552529182882,-0.4505058365758755,-0.055291828793774325,-1.46,27.4,-0.67
1.0,2024-05-10 14:37:27.315357440,1.21,-0.54,0.07,-10.096569037656906,35.703682008368204,-6.430794979079498
1.0,2024-05-10 14:37:27.325137408,1.21,-0.54,0.07,-10.8,36.38,-6.9
1.0,2024-05-10 14:37:27.334990848,1.21,-0.54,0.07,-10.8,36.38,-6.9
1.0,2024-05-10 14:37:27.344481536,1.2144176706827308,-0.5417670682730924,0.06381526104417672,-10.8,36.38,-6.9
1.0,2024-05-10 14:37:27.355051776,1.26,-0.56,0.0,19.268764044943822,63.16426966292135,-9.167865168539327
1.0,2024-05-10 14:37:27.365317632,1.26,-0.56,0.0,19.96,63.779999999999994,-9.22
1.0,2024-05-10 14:37:27.375010560,1.26,-0.56,0.0,19.96,63.78,-9.22
1.0,2024-05-10 14:37:27.385150976,1.26,-0.644,-0.004,20.142,61.754,-8.108
1.0,2024-05-10 14:37:27.394860800,1.26,-0.77,-0.01,20.87,53.65,-3.66
1.0,2024-05-10 14:37:27.404716544,1.26,-0.77,-0.01,20.87,53.65,-3.66
1.0,2024-05-10 14:37:27.415105024,1.26,-0.77,-0.01,20.87,53.65,-3.66
1.0,2024-05-10 14:37:27.425026304,1.1460000000000001,-0.7498823529411764,0.003411764705882353,6.7644705882352945,54.99917647058824,-4.201882352941176
1.0,2024-05-10 14:37:27.435107840,1.09,-0.74,0.01,-4.64,56.09,-4.64
1.0,2024-05-10 14:37:27.444977664,1.09,-0.74,0.01,-4.64,56.09,-4.64
1.0,2024-05-10 14:37:27.454932736,1.09,-0.74,0.01,-4.64,56.09,-4.64
1.0,2024-05-10 14:37:27.464944896,1.0207692307692307,-1.086153846153846,-0.10076923076923076,7.738,53.19800000000001,25.024
1.0,2024-05-10 14:37:27.475024896,0.99,-1.24,-0.15,15.99,51.27,44.8
1.0,2024-05-10 14:37:27.484803584,0.99,-1.24,-0.15,15.990000000000002,51.27,44.8
1.0,2024-05-10 14:37:27.495123968,0.99,-1.24,-0.15,15.99,51.27,44.8
1.0,2024-05-10 14:37:27.505204480,0.7687636363636363,-0.5677818181818183,-0.0564,43.46207272727273,35.96214545454546,65.64065454545455
1.0,2024-05-10 14:37:27.515404544,0.73,-0.45,-0.04,57.5,28.14,76.29
1.0,2024-05-10 14:37:27.525072896,0.73,-0.45,-0.04,57.5,28.14,76.29
1.0,2024-05-10 14:37:27.534826240,0.7300000000000001,-0.45,-0.04,57.5,28.139999999999997,76.29
1.0,2024-05-10 14:37:27.544779520,0.8365637065637065,-1.0094594594594595,-0.07552123552123552,10.275675675675677,-38.41081081081081,-46.571235521235515
1.0,2024-05-10 14:37:27.555118080,0.85,-1.08,-0.08,-3.05,-57.19,-81.24
1.0,2024-05-10 14:37:27.564766720,0.85,-1.08,-0.07999999999999999,-3.05,-57.19,-81.24
1.0,2024-05-10 14:37:27.574928896,0.85,-1.08,-0.08,-3.05,-57.19,-81.24
1.0,2024-05-10 14:37:27.585195264,0.78196,-0.30240000000000006,0.04636,93.178,-20.8858,-68.18604
1.0,2024-05-10 14:37:27.594951168,0.78,-0.28,0.05,95.95,-19.84,-67.81
1.0,2024-05-10 14:37:27.604935936,0.78,-0.28,0.05,95.95,-19.84,-67.81
1.0,2024-05-10 14:37:27.615627776,0.69417004048583,-0.32720647773279354,0.028542510121457493,88.88299595141702,-34.37080971659919,-79.97967611336033
1.0,2024-05-10 14:37:27.624998656,0.5800000000000001,-0.39,0.0,74.4,-64.15,-104.92
1.0,2024-05-10 14:37:27.635053824,0.58,-0.39,0.0,74.4,-64.15,-104.92
1.0,2024-05-10 14:37:27.644887552,0.58,-0.39,0.0,74.4,-64.15,-104.92
1.0,2024-05-10 14:37:27.654923520,0.6538129496402877,-0.3530935251798561,0.06561151079136691,78.5155035971223,-59.78758992805756,-101.2615107913669
1.0,2024-05-10 14:37:27.665474048,0.76,-0.3,0.16,109.07,-27.4,-74.1
1.0,2024-05-10 14:37:27.675366400,0.76,-0.3,0.16,109.07,-27.4,-74.1
1.0,2024-05-10 14:37:27.685218304,0.7600000000000001,-0.3,0.16,109.07,-27.4,-74.1
1.0,2024-05-10 14:37:27.695040768,0.8212048192771084,-0.14698795180722893,0.11409638554216868,112.61987951807228,-40.59983935742972,-77.36935742971887
1.0,2024-05-10 14:37:27.704874496,0.8799999999999999,0.0,0.07,116.03,-53.28,-80.51
1.0,2024-05-10 14:37:27.714710272,0.88,0.0,0.07,116.03,-53.28,-80.51
1.0,2024-05-10 14:37:27.724851712,0.88,0.0,0.07,116.03,-53.28,-80.51
1.0,2024-05-10 14:37:27.735065856,0.88,0.0,0.07,116.03,-53.28,-80.51
1.0,2024-05-10 14:37:27.745265920,0.88,0.0,0.07,116.03,-53.28,-80.51
1.0,2024-05-10 14:37:27.755279104,0.8775510204081632,0.006530612244897959,0.06755102040816327,114.82428571428572,-50.61469387755102,-81.54102040816328
1.0,2024-05-10 14:37:27.764812288,0.8702766798418973,0.07549407114624507,-0.01407114624505929,116.56592885375494,-33.410395256917,-88.91233201581028
1.0,2024-05-10 14:37:27.774656512,0.94,0.06,-0.2,170.41,-78.37,-74.04
1.0,2024-05-10 14:37:27.785111552,0.9400000000000001,0.05999999999999999,-0.2,170.41,-78.37,-74.04
1.0,2024-05-10 14:37:27.794898432,0.94,0.06,-0.2,170.41,-78.37,-74.04
1.0,2024-05-10 14:37:27.804615936,1.11608,0.50872,-0.37039999999999995,180.0504,-69.5612,-106.2656
1.0,2024-05-10 14:37:27.814557184,1.25,0.85,-0.5,192.32,-58.35,-147.28
1.0,2024-05-10 14:37:27.824519680,1.25,0.85,-0.5,192.32,-58.35,-147.28
1.0,2024-05-10 14:37:27.834795008,1.25,0.85,-0.5,192.32,-58.35,-147.27999999999997
1.0,2024-05-10 14:37:27.844977152,1.25,0.85,-0.5,192.32,-58.35,-147.28
1.0,2024-05-10 14:37:27.855094784,1.25,0.85,-0.5,192.32,-58.35,-147.28
1.0,2024-05-10 14:37:27.865302272,1.25,0.85,-0.5,192.32,-58.35,-147.28
1.0,2024-05-10 14:37:27.874923776,1.25,0.85,-0.5,192.32,-58.35,-147.28
1.0,2024-05-10 14:37:27.885059328,1.25,0.85,-0.5,192.32,-58.35,-147.28
1.0,2024-05-10 14:37:27.895130112,1.25,0.85,-0.5,192.32,-58.35,-147.28
1.0,2024-05-10 14:37:27.904677376,1.1042857142857143,0.8957142857142857,-0.5828571428571429,173.188693877551,-14.240693877551024,-141.19391836734695
1.0,2024-05-10 14:37:27.914923008,0.6172941176470588,1.171764705882353,-0.4527450980392157,-13.678745098039215,-23.072039215686274,-138.58019607843136
1.0,2024-05-10 14:37:27.925030656,0.59,1.13,-0.27,-33.94,-7.32,-58.96
1.0,2024-05-10 14:37:27.935099136,0.59,1.13,-0.27,-33.94,-7.32,-58.96
1.0,2024-05-10 14:37:27.945159168,0.59,1.13,-0.27,-33.94,-7.32,-58.96
1.0,2024-05-10 14:37:27.955042304,0.585,0.905,-0.27,-27.501399999999997,-17.8014,-53.5546
1.0,2024-05-10 14:37:27.965165824,0.58,0.68,-0.27,1.83,-65.55,-28.93
1.0,2024-05-10 14:37:27.974953728,0.58,0.68,-0.27,1.83,-65.55,-28.93
1.0,2024-05-10 14:37:27.984953344,0.58,0.68,-0.27,1.83,-65.55,-28.93
1.0,2024-05-10 14:37:27.995048704,0.7881447963800905,0.6279638009049774,-0.2595927601809955,7.959864253393665,-79.1418552036199,-25.65692307692308
1.0,2024-05-10 14:37:28.004429312,0.98,0.58,-0.25,13.61,-91.67,-22.64
1.0,2024-05-10 14:37:28.014955008,0.98,0.58,-0.25,13.61,-91.67,-22.64
1.0,2024-05-10 14:37:28.025351936,0.98,0.58,-0.25,13.61,-91.67,-22.64
1.0,2024-05-10 14:37:28.034943488,0.98,0.58,-0.25,13.61,-91.67,-22.64
1.0,2024-05-10 14:37:28.044761856,0.8987890625,0.4692578125,-0.2278515625,9.6011328125,-38.9936328125,-14.57796875
1.0,2024-05-10 14:37:28.054841344,0.87,0.43,-0.22,8.18,-20.32,-11.72
1.0,2024-05-10 14:37:28.064883200,0.8772131147540984,0.41918032786885245,-0.2019672131147541,13.772704918032787,-18.865081967213115,-16.425204918032787
1.0,2024-05-10 14:37:28.074710528,0.89,0.4,-0.17,27.4,-15.32,-27.89
1.0,2024-05-10 14:37:28.084726528,0.89,0.4,-0.17,27.4,-15.32,-27.89
1.0,2024-05-10 14:37:28.094642944,0.89,0.4,-0.17,27.4,-15.32,-27.89
1.0,2024-05-10 14:37:28.104839424,0.8519718309859154,0.5014084507042254,-0.25873239436619716,28.53962441314554,-7.52924882629108,-27.768075117370895
1.0,2024-05-10 14:37:28.114850560,0.83,0.56,-0.31,31.98,15.99,-27.4
1.0,2024-05-10 14:37:28.124680192,0.83,0.56,-0.31,31.98,15.99,-27.4
1.0,2024-05-10 14:37:28.135072512,0.83,0.56,-0.31,31.98,15.99,-27.4
1.0,2024-05-10 14:37:28.145853184,0.7805494505494506,0.7495604395604396,-0.3841758241758242,12.847417582417583,39.527087912087914,-13.515164835164834
1.0,2024-05-10 14:37:28.154607360,0.77,0.79,-0.4,8.61,44.74,-10.44
1.0,2024-05-10 14:37:28.164611584,0.77,0.79,-0.4,8.61,44.74,-10.44
1.0,2024-05-10 14:37:28.174927616,0.7623076923076924,0.8107692307692308,-0.39230769230769236,8.61,44.74,-10.44
1.0,2024-05-10 14:37:28.185307648,0.67,1.0600000000000003,-0.3,25.265967078189302,78.70263374485596,9.89679012345679
1.0,2024-05-10 14:37:28.194789888,0.67,1.06,-0.3,25.76,79.71,10.5
1.0,2024-05-10 14:37:28.204822272,0.67,1.06,-0.3,25.76,79.71,10.5
1.0,2024-05-10 14:37:28.214508032,0.6965612648221344,1.0486166007905138,-0.30379446640316204,25.92221343873518,84.04138339920948,11.895415019762845
1.0,2024-05-10 14:37:28.224918784,0.81,1.0,-0.32,27.47,125.37,25.21
1.0,2024-05-10 14:37:28.235155712,0.81,1.0,-0.32,27.47,125.36999999999999,25.21
1.0,2024-05-10 14:37:28.245004544,0.81,1.0,-0.32,27.47,125.37,25.21
1.0,2024-05-10 14:37:28.255077376,0.7751162790697675,0.9651162790697675,-0.35875968992248064,23.778139534883717,123.73627906976743,30.082093023255815
1.0,2024-05-10 14:37:28.265418752,0.63,0.82,-0.52,8.42,116.94,50.35
1.0,2024-05-10 14:37:28.275364864,0.63,0.82,-0.52,8.42,116.94,50.35
1.0,2024-05-10 14:37:28.285084160,0.6358677685950413,0.802396694214876,-0.5141322314049587,-2.964628099173554,96.8796694214876,56.834462809917355
1.0,2024-05-10 14:37:28.294605568,0.64,0.79,-0.51,-42.6,27.04,79.41
1.0,2024-05-10 14:37:28.304738304,0.64,0.79,-0.51,-42.6,27.04,79.41
1.0,2024-05-10 14:37:28.314770688,0.64,0.79,-0.51,-42.6,27.04,79.41
1.0,2024-05-10 14:37:28.324579072,0.9476691729323309,0.7830075187969925,-0.5030075187969926,-91.48951127819548,-55.56229323308271,75.94308270676692
1.0,2024-05-10 14:37:28.334948608,1.08,0.78,-0.5,-124.39000000000001,-111.15,73.61
1.0,2024-05-10 14:37:28.344847104,1.08,0.78,-0.5,-124.39,-111.15,73.61
1.0,2024-05-10 14:37:28.354518528,1.08,0.78,-0.5,-124.39,-111.15,73.61
1.0,2024-05-10 14:37:28.364734464,1.247837837837838,0.6267567567567567,-0.31027027027027027,-143.2981081081081,-68.39864864864865,19.06189189189189
1.0,2024-05-10 14:37:28.374806272,1.31,0.57,-0.24,-156.19,-39.25,-18.13
1.0,2024-05-10 14:37:28.384630784,1.31,0.57,-0.24,-156.19,-39.25,-18.13
1.0,2024-05-10 14:37:28.395168512,1.31,0.57,-0.23999999999999996,-156.19,-39.25,-18.13
1.0,2024-05-10 14:37:28.405301504,1.0290625,0.3859375,-0.1528125,-83.57171875,49.090390625,-19.612890625
1.0,2024-05-10 14:37:28.415278336,1.02,0.38,-0.15,-72.45,62.62,-19.84
1.0,2024-05-10 14:37:28.425469696,1.02,0.38,-0.15,-72.45,62.62,-19.84
1.0,2024-05-10 14:37:28.434962944,0.9437394957983194,0.4308403361344538,-0.1707983193277311,-74.25529411764707,56.63378151260504,-19.890840336134456
1.0,2024-05-10 14:37:28.444773120,0.69,0.6,-0.23999999999999996,-91.98,-2.14,-20.39
1.0,2024-05-10 14:37:28.455161600,0.69,0.6,-0.24,-91.98,-2.14,-20.39
1.0,2024-05-10 14:37:28.465281024,0.69,0.6,-0.24,-91.98,-2.14,-20.39
1.0,2024-05-10 14:37:28.475271168,0.6474721189591077,0.4840148698884758,-0.22066914498141263,-99.59806691449815,7.9361710037174715,-7.465130111524164
1.0,2024-05-10 14:37:28.485026560,0.58,0.3,-0.19,-117.92,32.17,23.62
1.0,2024-05-10 14:37:28.494927360,0.58,0.3,-0.19,-117.92,32.17,23.62
1.0,2024-05-10 14:37:28.504921088,0.58,0.3,-0.19,-117.92,32.17,23.62
1.0,2024-05-10 14:37:28.514973696,0.5285714285714286,0.12,-0.08071428571428572,-161.87436974789915,-74.87752100840338,34.815924369747904
1.0,2024-05-10 14:37:28.524553728,0.5,0.02,-0.02,-193.18,-151.12,42.79
1.0,2024-05-10 14:37:28.534834944,0.5,0.02,-0.02,-193.18,-151.12,42.79
1.0,2024-05-10 14:37:28.544734464,0.5,0.02,-0.02,-193.18,-151.11999999999998,42.79
1.0,2024-05-10 14:37:28.554851584,1.1390647482014387,-0.5442805755395683,0.18395683453237413,-143.71269784172662,60.287086330935246,166.50115107913666
1.0,2024-05-10 14:37:28.565405184,1.44,-0.81,0.28,-106.69,218.51,259.09
1.0,2024-05-10 14:37:28.575451136,1.44,-0.81,0.28,-106.69,218.51,259.09
1.0,2024-05-10 14:37:28.585335296,1.4221199999999998,-0.7972800000000001,0.26848,-106.69,218.51,259.09
1.0,2024-05-10 14:37:28.594957312,-0.05,0.25,-0.68,-98.96626050420168,123.0066386554622,181.51836134453782
1.0,2024-05-10 14:37:28.604824320,-0.05,0.25,-0.68,-98.14,112.79,173.22
1.0,2024-05-10 14:37:28.614953728,-0.05,0.25,-0.68,-98.14,112.79,173.22
1.0,2024-05-10 14:37:28.625339392,0.20968036529680362,-0.07835616438356165,-0.5147488584474886,-98.48616438356164,111.64036529680367,172.81753424657535
1.0,2024-05-10 14:37:28.635124224,1.16,-1.28,0.09,-173.95,-138.98,85.08
1.0,2024-05-10 14:37:28.644759296,1.16,-1.28,0.09,-173.95,-138.98,85.08
1.0,2024-05-10 14:37:28.654883072,1.16,-1.28,0.09,-173.95,-138.98,85.08
1.0,2024-05-10 14:37:28.665091328,1.052734693877551,-1.0863265306122447,-0.029183673469387758,-149.45436734693877,-112.10751020408162,97.49183673469388
1.0,2024-05-10 14:37:28.675086848,0.8,-0.63,-0.31,-46.26,1.1,149.78
1.0,2024-05-10 14:37:28.684654848,0.8,-0.63,-0.31,-46.26,1.1,149.78
1.0,2024-05-10 14:37:28.694822912,0.8,-0.63,-0.31,-46.26,1.1,149.78
1.0,2024-05-10 14:37:28.705361664,1.1296428571428572,-0.8064285714285715,-0.1985714285714286,-54.934107142857144,-29.498660714285712,119.96799107142859
1.0,2024-05-10 14:37:28.715103488,1.51,-1.01,-0.07,-75.26,-101.2,50.11
1.0,2024-05-10 14:37:28.724799744,1.51,-1.01,-0.07,-75.26,-101.2,50.11
1.0,2024-05-10 14:37:28.735035648,1.51,-1.01,-0.07,-75.26,-101.2,50.11
1.0,2024-05-10 14:37:28.745270784,1.3951648351648351,-0.8347252747252747,-0.015604395604395607,-60.12710622710623,-42.30754578754579,28.358534798534798
1.0,2024-05-10 14:37:28.754961408,1.32,-0.72,0.02,-38.7,41.08,-2.44
1.0,2024-05-10 14:37:28.764849408,1.32,-0.72,0.02,-38.7,41.08,-2.44
1.0,2024-05-10 14:37:28.774815744,1.32,-0.72,0.02,-38.7,41.08,-2.44
1.0,2024-05-10 14:37:28.784576256,1.32,-0.72,0.02,-38.7,41.08,-2.44
1.0,2024-05-10 14:37:28.794648832,1.1359683794466404,-0.6548221343873517,0.00849802371541502,-33.401027667984195,38.85454545454545,-14.651541501976284
1.0,2024-05-10 14:37:28.804954112,0.84,-0.55,-0.01,-20.08,33.26,-45.35
1.0,2024-05-10 14:37:28.815000064,0.84,-0.55,-0.01,-20.08,33.26,-45.35
1.0,2024-05-10 14:37:28.825261056,0.7336679536679537,-0.4561776061776062,-0.0788030888030888,3.969806949806951,0.1281853281853269,-59.473397683397685
1.0,2024-05-10 14:37:28.835459328,0.67,-0.4,-0.12,18.37,-19.71,-67.93
1.0,2024-05-10 14:37:28.844939008,0.67,-0.4,-0.12,18.37,-19.71,-67.93
1.0,2024-05-10 14:37:28.855310848,0.7022222222222223,-0.39111111111111113,-0.10555555555555556,18.37,-19.71,-67.93
1.0,2024-05-10 14:37:28.865413120,0.96,-0.32,0.01,21.018132295719845,-96.44677042801557,-64.98653696498054
1.0,2024-05-10 14:37:28.875393792,0.96,-0.32,0.01,21.06,-97.66,-64.94
1.0,2024-05-10 14:37:28.885087744,0.9600000000000001,-0.32,0.01,21.06,-97.66,-64.94
1.0,2024-05-10 14:37:28.894863872,0.96,-0.32,0.01,21.06,-97.66,-64.94
1.0,2024-05-10 14:37:28.905301504,0.96,-0.32,0.01,21.06,-97.66,-64.94
1.0,2024-05-10 14:37:28.915414784,0.96,-0.32,0.01,21.06,-97.66,-64.94
1.0,2024-05-10 14:37:28.925291264,0.96,-0.32,0.01,21.06,-97.66,-64.94
1.0,2024-05-10 14:37:28.935414528,0.96,-0.32,0.01,21.060000000000002,-97.66,-64.94
1.0,2024-05-10 14:37:28.944929536,0.96,-0.32,0.01,21.06,-97.66000000000001,-64.94
1.0,2024-05-10 14:37:28.954657792,0.96,-0.32,0.01,21.06,-97.66,-64.94
1.0,2024-05-10 14:37:28.964620544,0.96,-0.32,0.01,21.06,-97.66,-64.94
1.0,2024-05-10 14:37:28.974452736,0.96,-0.32,0.01,21.06,-97.66,-64.94
1.0,2024-05-10 14:37:28.984527872,0.96,-0.32,0.01,21.06,-97.66,-64.94
1.0,2024-05-10 14:37:28.994896128,0.9599999999999999,-0.32,0.01,21.06,-97.66,-64.94
1.0,2024-05-10 14:37:29.005125888,1.0154618473895582,-0.33072289156626505,-0.010321285140562249,11.652489959839357,-26.438152610441765,-38.49257028112449
1.0,2024-05-10 14:37:29.015176704,1.09,-0.35,-0.01,-0.37,56.58,-5.37
1.0,2024-05-10 14:37:29.025027072,1.09,-0.35,-0.01,-0.37,56.58,-5.37
1.0,2024-05-10 14:37:29.034707712,1.09,-0.35,-0.01,-0.37,56.58,-5.37
1.0,2024-05-10 14:37:29.045036288,1.09,-0.35,-0.01,-0.37,56.58,-5.37
1.0,2024-05-10 14:37:29.055109376,0.9914671814671815,-0.35,-0.018957528957528957,0.06891891891891891,49.53042471042471,-0.4523166023166023
1.0,2024-05-10 14:37:29.065242624,0.98,-0.35,-0.02,0.12,48.71,0.12
1.0,2024-05-10 14:37:29.075475968,0.9800000000000001,-0.35,-0.02,0.12,48.71,0.12
1.0,2024-05-10 14:37:29.085553920,0.98,-0.35,-0.02,0.12,48.71,0.12
1.0,2024-05-10 14:37:29.095264000,0.98,-0.35,-0.02,0.12,48.71,0.12
1.0,2024-05-10 14:37:29.105214720,1.2240754716981133,-0.5275094339622641,0.061358490566037725,19.207924528301884,44.44207547169811,-3.382641509433962
1.0,2024-05-10 14:37:29.115080192,1.206600790513834,-0.693399209486166,0.07707509881422925,27.882213438735178,61.26083003952569,-9.495335968379445
1.0,2024-05-10 14:37:29.125091840,1.07,-0.83,0.06,32.29,105.65,-21.24
1.0,2024-05-10 14:37:29.135187456,1.07,-0.83,0.06,32.29,105.65,-21.24
1.0,2024-05-10 14:37:29.145047040,1.07,-0.83,0.06,32.29,105.65,-21.24
1.0,2024-05-10 14:37:29.155527680,0.891609756097561,-0.9618536585365854,0.14531707317073173,35.88824390243902,138.1290243902439,-2.2056585365853647
1.0,2024-05-10 14:37:29.165384960,0.84,-1.0,0.17,39.11999999999999,167.3,14.89
1.0,2024-05-10 14:37:29.174920192,0.84,-1.0,0.17000000000000004,39.12,167.3,14.89
1.0,2024-05-10 14:37:29.184693760,0.84,-1.0,0.17,39.12,167.3,14.89
1.0,2024-05-10 14:37:29.194777600,0.5831558935361217,-0.7138022813688213,0.015893536121673005,84.89136882129277,97.25174904942965,5.206235741444867
1.0,2024-05-10 14:37:29.205066496,0.49,-0.61,-0.04,110.35,58.29,-0.18
1.0,2024-05-10 14:37:29.215026944,0.49,-0.61,-0.04,110.35,58.29,-0.18
1.0,2024-05-10 14:37:29.225052416,0.49,-0.61,-0.04,110.35,58.29,-0.18
1.0,2024-05-10 14:37:29.234196992,0.9903669724770643,-0.2208256880733945,0.22871559633027522,45.25422018348624,-80.6208256880734,-44.82587155963302
,,,,,,,
1.0,2024-05-10 14:37:29.258803456,1.03,-0.19,0.25,29.72,-113.77,-55.48
1.0,2024-05-10 14:37:29.265081600,1.059003984063745,-0.26920318725099607,0.2544621513944223,30.08840637450199,-113.38115537848604,-55.50796812749004
1.0,2024-05-10 14:37:29.275160576,1.29,-0.9,0.29,122.19,-16.17,-62.5
1.0,2024-05-10 14:37:29.284876800,1.29,-0.9,0.29,122.19,-16.17,-62.5
1.0,2024-05-10 14:37:29.295099136,1.29,-0.9,0.29,122.19,-16.17,-62.5
1.0,2024-05-10 14:37:29.305252864,1.281106719367589,-0.716205533596838,0.25146245059288536,123.0207509881423,-9.880553359683796,-62.16304347826087
1.0,2024-05-10 14:37:29.311907072,1.26,-0.28,0.16,128.97,35.16,-59.75
