id,timestamp,acc_x,acc_y,acc_z,gyro_x,gyro_y,gyro_z
3.0,2024-05-10 14:35:58.887549440,0.5950000000000001,-4.517647058823529,0.18536764705882353,426.0225735294118,396.5185294117647,323.85220588235296
3.0,2024-05-10 14:35:58.895424256,2.97,-3.4,-2.49,401.12,437.62,447.45
3.0,2024-05-10 14:35:58.905030656,2.97,-3.4,-2.49,401.12,437.62,447.45
3.0,2024-05-10 14:35:58.914716416,2.97,-3.4,-2.49,401.12,437.62,447.45
3.0,2024-05-10 14:35:58.924926976,2.9779166666666668,-3.3157954545454547,-2.4367424242424245,400.7954166666667,420.391893939394,443.0612878787879
3.0,2024-05-10 14:35:58.934963200,3.08,-2.23,-1.75,396.61,198.24,386.47
3.0,2024-05-10 14:35:58.944770560,3.08,-2.23,-1.75,396.61,198.24,386.47
3.0,2024-05-10 14:35:58.954883584,3.106781115879828,-2.235579399141631,-1.6339484978540773,396.61,198.24000000000004,386.47
3.0,2024-05-10 14:35:58.964782848,3.32,-2.28,-0.71,378.3,314.58,434.45
3.0,2024-05-10 14:35:58.974823424,3.32,-2.28,-0.71,378.3,314.58,434.45
3.0,2024-05-10 14:35:58.984713728,3.32,-2.28,-0.71,378.3,314.58,434.45
3.0,2024-05-10 14:35:58.994889728,3.2384705882352938,-2.214,-0.6634117647058823,304.8323921568628,365.82109803921566,457.2233333333333
3.0,2024-05-10 14:35:59.005077504,3.11,-2.11,-0.59,43.76,547.91,538.15
3.0,2024-05-10 14:35:59.015027200,3.11,-2.11,-0.59,43.76,547.91,538.15
3.0,2024-05-10 14:35:59.024962560,3.11,-2.11,-0.59,43.76,547.91,538.15
3.0,2024-05-10 14:35:59.034897408,2.851704035874439,-2.286502242152466,-0.5254260089686099,0.05309417040358625,486.267668161435,555.7657847533633
3.0,2024-05-10 14:35:59.045023232,2.51,-2.5200000000000005,-0.44000000000000006,-91.60999999999999,356.99,592.7099999999999
3.0,2024-05-10 14:35:59.054734336,2.51,-2.52,-0.44,-91.61,356.99,592.71
3.0,2024-05-10 14:35:59.065086720,2.51,-2.52,-0.44,-91.61,356.99,592.71
3.0,2024-05-10 14:35:59.075222528,2.544039215686275,-2.5783529411764707,-0.4740392156862745,-85.79415686274511,247.41290196078432,577.9904705882353
3.0,2024-05-10 14:35:59.085355008,2.58,-2.64,-0.51,-79.65,131.65,562.44
3.0,2024-05-10 14:35:59.095104256,2.58,-2.64,-0.51,-79.65,131.65,562.44
3.0,2024-05-10 14:35:59.104888832,2.58,-2.64,-0.51,-79.65,131.65,562.44
3.0,2024-05-10 14:35:59.114859264,2.709461538461538,-2.6975384615384614,-0.49561538461538457,-39.330000000000005,19.222000000000005,540.354
3.0,2024-05-10 14:35:59.124751872,2.76,-2.72,-0.49,-12.45,-55.73,525.63
3.0,2024-05-10 14:35:59.135144960,2.76,-2.72,-0.49,-12.45,-55.73,525.63
3.0,2024-05-10 14:35:59.145346048,2.76,-2.7199999999999998,-0.49,-12.45,-55.730000000000004,525.63
3.0,2024-05-10 14:35:59.155136256,2.977608695652174,-2.6614130434782606,-0.12173913043478261,-39.4918115942029,-26.676014492753623,509.61000000000007
3.0,2024-05-10 14:35:59.164966912,3.02,-2.65,-0.05,-54.38,-10.68,500.79
3.0,2024-05-10 14:35:59.174633984,3.02,-2.65,-0.05,-54.38,-10.68,500.79
3.0,2024-05-10 14:35:59.184795904,3.02,-2.65,-0.05,-54.38,-10.68,500.7900000000001
3.0,2024-05-10 14:35:59.195243776,4.050588235294118,-3.23890756302521,-0.6665126050420168,-92.78117647058825,83.7129411764706,451.4358823529412
3.0,2024-05-10 14:35:59.205041664,4.14,-3.29,-0.72,-101.01,103.94,440.86
3.0,2024-05-10 14:35:59.214740480,4.14,-3.29,-0.72,-101.01,103.94,440.86
3.0,2024-05-10 14:35:59.225025024,4.226821705426357,-3.208217054263566,-0.7870542635658915,-101.01,103.94,440.86
3.0,2024-05-10 14:35:59.235073536,6.38,-1.18,-2.45,64.49898785425101,54.928825910931174,218.2527125506073
3.0,2024-05-10 14:35:59.245087232,6.38,-1.18,-2.45,75.2,51.76,203.86
3.0,2024-05-10 14:35:59.255105280,6.38,-1.18,-2.45,75.2,51.76,203.86
3.0,2024-05-10 14:35:59.264990208,6.345090909090909,-0.8472,-2.491890909090909,75.2,51.76,203.86
3.0,2024-05-10 14:35:59.275386880,6.23,0.25,-2.63,65.2822813688213,-91.95878326996197,123.05239543726236
3.0,2024-05-10 14:35:59.285324288,6.23,0.25,-2.63,64.51,-103.15,116.76
3.0,2024-05-10 14:35:59.294967296,6.23,0.25,-2.63,64.51,-103.15,116.76
3.0,2024-05-10 14:35:59.305387264,6.343127753303964,1.748942731277533,-2.1020704845814975,3.237312775330397,7.844581497797357,-26.878942731277537
3.0,2024-05-10 14:35:59.315224832,6.35,1.84,-2.07,-0.79,15.14,-36.32
3.0,2024-05-10 14:35:59.324962560,6.35,1.84,-2.07,-0.79,15.14,-36.32
3.0,2024-05-10 14:35:59.334989824,5.365866666666666,1.5549777777777778,-1.6774222222222224,-8.765644444444446,-1.1307999999999996,-144.58977777777775
3.0,2024-05-10 14:35:59.345025024,4.52,1.31,-1.34,-20.51,-25.09,-304.02
3.0,2024-05-10 14:35:59.355218432,4.52,1.31,-1.34,-20.509999999999998,-25.09,-304.0199999999999
3.0,2024-05-10 14:35:59.364897536,4.52,1.31,-1.34,-20.51,-25.09,-304.02
3.0,2024-05-10 14:35:59.374883328,4.170182481751825,0.5857299270072993,-0.9852554744525549,-13.68116788321168,-87.42649635036497,-407.166897810219
3.0,2024-05-10 14:35:59.384929024,3.81,-0.16,-0.62,-6.65,-151.61,-513.37
3.0,2024-05-10 14:35:59.395161088,3.81,-0.16,-0.62,-6.65,-151.61,-513.37
3.0,2024-05-10 14:35:59.405437952,3.81,-0.16,-0.62,-6.65,-151.61,-513.37
3.0,2024-05-10 14:35:59.414984960,3.6668852459016397,-1.1459016393442623,-1.001639344262295,-104.22286885245902,-49.066967213114765,-534.0389344262295
3.0,2024-05-10 14:35:59.424805632,3.63,-1.4,-1.1,-152.71,1.8900000000000001,-544.31
3.0,2024-05-10 14:35:59.435567104,3.63,-1.4,-1.1,-152.71,1.89,-544.31
3.0,2024-05-10 14:35:59.445291264,3.63,-1.4,-1.1,-152.71,1.8899999999999997,-544.31
3.0,2024-05-10 14:35:59.455026944,3.8291304347826087,-2.3775494071146244,-0.9913833992094861,-154.21154150197628,-88.68711462450592,-589.5071936758893
3.0,2024-05-10 14:35:59.464912896,3.85,-2.48,-0.98,-154.6,-112.12,-601.2
3.0,2024-05-10 14:35:59.474892800,3.85,-2.48,-0.98,-154.6,-112.12,-601.2
3.0,2024-05-10 14:35:59.485054720,3.85,-2.48,-0.98,-154.6,-112.12,-601.2
3.0,2024-05-10 14:35:59.494857984,3.568252032520325,-2.5577235772357727,-1.086869918699187,-162.95902439024388,-104.67414634146341,-610.4107317073172
3.0,2024-05-10 14:35:59.504751616,3.56,-2.56,-1.09,-164.12,-103.64,-611.69
3.0,2024-05-10 14:35:59.514557184,3.56,-2.56,-1.09,-164.12,-103.64,-611.69
3.0,2024-05-10 14:35:59.524679424,3.563576642335766,-2.5546350364963506,-1.181204379562044,-164.69416058394162,-111.37102189781022,-610.1379197080292
3.0,2024-05-10 14:35:59.535644160,3.58,-2.53,-1.6,-170.96,-195.74,-593.2
3.0,2024-05-10 14:35:59.545662464,3.58,-2.53,-1.6,-170.96,-195.74,-593.2
3.0,2024-05-10 14:35:59.555117056,3.58,-2.53,-1.6,-170.96,-195.74,-593.2
3.0,2024-05-10 14:35:59.565174528,3.64353711790393,-2.441048034934498,-1.672008733624454,-176.8770305676856,-211.1985152838428,-585.6563318777294
3.0,2024-05-10 14:35:59.574837504,3.73,-2.32,-1.77,-198.06,-266.54,-558.65
3.0,2024-05-10 14:35:59.584669696,3.73,-2.32,-1.77,-198.06,-266.54,-558.65
3.0,2024-05-10 14:35:59.594958080,3.73,-2.32,-1.77,-198.06,-266.54,-558.65
3.0,2024-05-10 14:35:59.605049344,3.6599115044247785,-2.245530973451327,-2.094159292035398,-218.26061946902655,-282.0019469026549,-535.6710619469026
3.0,2024-05-10 14:35:59.615036160,3.57,-2.15,-2.51,-256.59,-311.34,-492.07
3.0,2024-05-10 14:35:59.624973056,3.5699999999999994,-2.15,-2.51,-256.59,-311.34,-492.06999999999994
3.0,2024-05-10 14:35:59.634687232,3.57,-2.15,-2.51,-256.59,-311.34,-492.07
3.0,2024-05-10 14:35:59.644908288,3.3109811320754714,-2.1769811320754715,-2.229396226415094,-273.9198113207547,-350.5596226415094,-467.44056603773583
3.0,2024-05-10 14:35:59.655123200,3.09,-2.2,-1.9899999999999998,-294.86,-397.95,-437.68
3.0,2024-05-10 14:35:59.665012480,3.09,-2.2,-1.99,-294.86,-397.95,-437.68000000000006
3.0,2024-05-10 14:35:59.674749440,3.0899999999999994,-2.2,-1.99,-294.86,-397.95,-437.68
3.0,2024-05-10 14:35:59.684447744,1.9337606837606838,-3.2068376068376065,-0.625897435897436,-328.6506837606838,-372.0452564102564,-386.46752136752133
3.0,2024-05-10 14:35:59.694860544,1.31,-3.75,0.11,-357.12,-350.22,-343.32
3.0,2024-05-10 14:35:59.705182464,1.31,-3.75,0.11,-357.12,-350.22,-343.32
3.0,2024-05-10 14:35:59.715634944,1.31,-3.75,0.11,-357.12,-350.22,-343.32
3.0,2024-05-10 14:35:59.725313536,-1.461265306122449,-6.504367346938775,4.748489795918367,-532.808081632653,-205.4636326530612,-118.43351020408163
3.0,2024-05-10 14:35:59.735362304,-1.97,-7.01,5.6,-565.06,-178.89,-77.15
3.0,2024-05-10 14:35:59.745075968,-1.97,-7.01,5.6,-565.06,-178.89,-77.15
3.0,2024-05-10 14:35:59.754834944,-1.960327868852459,-6.99672131147541,5.603770491803278,-565.06,-178.89,-77.15
3.0,2024-05-10 14:35:59.765193216,-1.38,-6.2,5.83,-5.689629629629624,160.13777777777776,166.9888888888889
3.0,2024-05-10 14:35:59.775123456,-1.38,-6.2,5.83,39.06,187.26,186.52
3.0,2024-05-10 14:35:59.784748544,-1.38,-6.2,5.83,39.059999999999995,187.26000000000002,186.52
3.0,2024-05-10 14:35:59.794979584,-1.0909960159362548,-5.954501992031873,5.174302788844622,39.06,187.26,186.52
3.0,2024-05-10 14:35:59.804929280,0.48,-4.62,1.61,466.2535885167464,376.1277033492823,295.7806220095694
3.0,2024-05-10 14:35:59.814939904,0.48,-4.62,1.61,478.87999999999994,381.71,299.01
3.0,2024-05-10 14:35:59.824826624,0.48,-4.62,1.61,478.88,381.71,299.01
3.0,2024-05-10 14:35:59.834801664,1.24,-4.4,0.7500000000000001,478.12155,388.2396,306.83485
3.0,2024-05-10 14:35:59.844954112,4.28,-3.52,-2.69,465.09,500.43,441.28
3.0,2024-05-10 14:35:59.855312640,4.28,-3.52,-2.69,465.09,500.43,441.28
3.0,2024-05-10 14:35:59.865090816,4.28,-3.52,-2.69,465.09,500.43,441.28
3.0,2024-05-10 14:35:59.875186176,3.8329680365296808,-2.711324200913242,-2.5041552511415524,377.9009589041096,479.1587671232877,462.1238356164383
3.0,2024-05-10 14:35:59.884896256,3.39,-1.91,-2.32,252.93,448.67,492.0
3.0,2024-05-10 14:35:59.895019776,3.39,-1.91,-2.32,252.93,448.67,492.0
3.0,2024-05-10 14:35:59.905498880,3.39,-1.91,-2.32,252.93,448.67,492.0
3.0,2024-05-10 14:35:59.915248384,3.213041474654378,-1.7828110599078342,-1.5236866359447003,226.58972350230414,442.7706451612903,497.832995391705
3.0,2024-05-10 14:35:59.925172224,3.07,-1.68,-0.88,133.85,422.0,518.37
3.0,2024-05-10 14:35:59.935432960,3.07,-1.68,-0.88,133.85,422.0,518.37
3.0,2024-05-10 14:35:59.945188096,3.07,-1.68,-0.88,133.85,422.0,518.37
3.0,2024-05-10 14:35:59.954996480,2.80875,-1.8725,-0.598125,-32.469531249999996,480.31718750000005,598.9186328125
3.0,2024-05-10 14:35:59.965009664,2.69,-1.96,-0.47,-159.79,524.96,660.58
3.0,2024-05-10 14:35:59.974993920,2.69,-1.96,-0.47,-159.79,524.96,660.58
3.0,2024-05-10 14:35:59.985067264,2.69,-1.96,-0.47,-159.79,524.96,660.58
3.0,2024-05-10 14:35:59.995117056,2.1306008583690987,-2.3310300429184547,-0.47,-156.1245922746781,247.89030042918455,590.9089270386266
3.0,2024-05-10 14:36:00.005196544,1.71,-2.61,-0.47,-153.32,35.89,537.6
3.0,2024-05-10 14:36:00.015003648,1.71,-2.61,-0.47,-153.32,35.89,537.6
3.0,2024-05-10 14:36:00.024926720,1.71,-2.61,-0.47,-153.32,35.89,537.6
3.0,2024-05-10 14:36:00.035490304,2.039411764705882,-2.8076470588235294,-0.12741176470588234,-105.20490196078431,-30.426078431372556,521.0062352941177
3.0,2024-05-10 14:36:00.045184512,2.21,-2.91,0.05,107.73,-323.91,447.57
3.0,2024-05-10 14:36:00.054963968,2.21,-2.91,0.05,107.73,-323.91,447.57
3.0,2024-05-10 14:36:00.065049344,2.21,-2.91,0.05,107.73,-323.91,447.57
3.0,2024-05-10 14:36:00.074559488,3.0238053097345134,-3.0024778761061945,0.1702212389380531,218.34526548672568,-234.62703539823008,452.4651327433628
3.0,2024-05-10 14:36:00.084827392,3.09,-3.01,0.18,242.86,-214.84,453.55
3.0,2024-05-10 14:36:00.094902016,3.09,-3.01,0.18,242.86,-214.84,453.55
3.0,2024-05-10 14:36:00.105153536,3.0964516129032256,-3.0067741935483867,0.17732718894009214,242.86,-214.84,453.55
3.0,2024-05-10 14:36:00.114959872,3.79,-2.66,-0.11,100.73129707112972,60.89807531380753,483.7781171548117
3.0,2024-05-10 14:36:00.125030656,3.79,-2.6600000000000006,-0.11,87.04,87.46,486.69
3.0,2024-05-10 14:36:00.135173120,3.79,-2.66,-0.11,87.04,87.46,486.69
3.0,2024-05-10 14:36:00.144999680,3.8707511737089204,-2.684225352112676,-0.30178403755868544,80.53413145539906,120.48605633802816,475.7892957746479
3.0,2024-05-10 14:36:00.155040000,4.19,-2.78,-1.06,26.79,393.31,385.74
3.0,2024-05-10 14:36:00.165047552,4.19,-2.78,-1.06,26.79,393.31,385.74
3.0,2024-05-10 14:36:00.174705920,4.19,-2.78,-1.06,26.79,393.31,385.74
3.0,2024-05-10 14:36:00.184906752,4.19,-2.78,-1.06,26.79,393.31,385.74
3.0,2024-05-10 14:36:00.195379456,6.510629921259842,-0.30062992125984245,-2.6851968503937007,89.25602362204724,161.94433070866143,252.04751968503936
3.0,2024-05-10 14:36:00.205429760,7.26,0.5,-3.21,109.86,85.63,207.95
3.0,2024-05-10 14:36:00.215084544,7.26,0.5,-3.21,109.86,85.63,207.95
3.0,2024-05-10 14:36:00.225102848,7.2536974789915964,0.615546218487395,-3.3192436974789916,88.34735294117647,58.60176470588235,179.83882352941177
3.0,2024-05-10 14:36:00.235038720,7.23,1.05,-3.73,5.37,-45.65,71.41
3.0,2024-05-10 14:36:00.244818944,7.23,1.05,-3.73,5.37,-45.65,71.41
3.0,2024-05-10 14:36:00.254885632,7.23,1.05,-3.73,5.37,-45.65,71.41
3.0,2024-05-10 14:36:00.264900352,6.229148936170213,0.7640425531914894,-2.836382978723404,-25.960893617021277,-63.850425531914894,-93.33204255319149
3.0,2024-05-10 14:36:00.275019264,5.55,0.57,-2.23,-64.09,-86.0,-293.82
3.0,2024-05-10 14:36:00.285072896,5.55,0.57,-2.23,-64.09,-86.0,-293.82
3.0,2024-05-10 14:36:00.295276544,5.55,0.57,-2.23,-64.09,-86.0,-293.82
3.0,2024-05-10 14:36:00.304904192,4.63926406926407,0.08272727272727269,-1.9167532467532467,-57.84809523809524,-66.50138528138528,-385.96147186147186
3.0,2024-05-10 14:36:00.314628608,3.98,-0.27,-1.69,-51.33,-46.14,-482.18
3.0,2024-05-10 14:36:00.324607488,3.98,-0.27,-1.69,-51.33,-46.14,-482.18
3.0,2024-05-10 14:36:00.335085824,3.98,-0.27,-1.69,-51.33,-46.14,-482.18
3.0,2024-05-10 14:36:00.345387264,3.8378181818181814,-0.477,-1.621,-56.766363636363636,-56.159636363636366,-500.40436363636366
3.0,2024-05-10 14:36:00.354966272,3.3,-1.26,-1.36,-77.33,-94.06,-569.34
3.0,2024-05-10 14:36:00.364884992,3.3,-1.26,-1.36,-77.33,-94.06,-569.34
3.0,2024-05-10 14:36:00.374975232,3.3,-1.2599999999999998,-1.36,-77.33,-94.06,-569.34
3.0,2024-05-10 14:36:00.384708864,3.1523577235772358,-1.9889837398373982,-1.1939024390243902,-152.6357723577236,-121.02382113821139,-523.1294308943089
3.0,2024-05-10 14:36:00.394847232,3.14,-2.05,-1.18,-159.3,-123.41,-519.04
3.0,2024-05-10 14:36:00.404581888,3.14,-2.05,-1.18,-159.3,-123.41,-519.04
3.0,2024-05-10 14:36:00.414442496,3.14,-2.05,-1.18,-159.3,-123.41,-519.04
3.0,2024-05-10 14:36:00.424629248,3.033333333333333,-2.3255555555555554,-0.8777777777777778,-155.81923076923078,-201.74333333333334,-515.7964102564102
3.0,2024-05-10 14:36:00.434854656,3.02,-2.36,-0.84,-153.87,-245.61,-513.98
3.0,2024-05-10 14:36:00.444543744,3.02,-2.3599999999999994,-0.8399999999999999,-153.87,-245.61,-513.98
3.0,2024-05-10 14:36:00.454608896,3.0079148936170212,-2.332808510638298,-0.7856170212765957,-151.65778723404256,-249.39582978723405,-506.3625957446809
3.0,2024-05-10 14:36:00.464672768,2.98,-2.27,-0.66,-141.78,-266.3,-472.35
3.0,2024-05-10 14:36:00.474544896,2.98,-2.27,-0.66,-141.78,-266.3,-472.35
3.0,2024-05-10 14:36:00.484730112,2.98,-2.27,-0.66,-141.78,-266.3,-472.35
3.0,2024-05-10 14:36:00.494571776,3.0178540772532187,-2.223733905579399,-0.9375965665236052,-140.71390557939915,-292.81317596566527,-467.7598712446352
3.0,2024-05-10 14:36:00.504795904,3.07,-2.16,-1.32,-138.18,-355.83,-456.85
3.0,2024-05-10 14:36:00.515022080,3.07,-2.16,-1.32,-138.18,-355.83,-456.85
3.0,2024-05-10 14:36:00.525150464,3.1629460580912863,-2.0066390041493776,-1.3385892116182574,-137.91278008298755,-365.43082987551867,-444.1169709543569
3.0,2024-05-10 14:36:00.535221504,3.27,-1.83,-1.36,-136.78,-406.12999999999994,-390.14
3.0,2024-05-10 14:36:00.544981504,3.27,-1.83,-1.36,-136.78,-406.13,-390.14
3.0,2024-05-10 14:36:00.555209216,3.2699999999999996,-1.83,-1.36,-136.78,-406.13,-390.14
3.0,2024-05-10 14:36:00.565177600,3.2508984375,-1.6771875,-1.84390625,-206.05015625000001,-395.094453125,-364.378984375
3.0,2024-05-10 14:36:00.575380736,3.24,-1.59,-2.12,-258.24,-386.78,-344.97
3.0,2024-05-10 14:36:00.585107712,3.24,-1.59,-2.12,-258.24,-386.78,-344.97
3.0,2024-05-10 14:36:00.594807808,3.24,-1.59,-2.12,-258.24,-386.78,-344.97
3.0,2024-05-10 14:36:00.605063424,3.24,-1.966,-1.8479999999999999,-311.3569795918367,-388.96938775510205,-306.9962857142857
3.0,2024-05-10 14:36:00.614962176,3.24,-2.06,-1.78,-345.58,-390.37999999999994,-282.53
3.0,2024-05-10 14:36:00.624736768,3.24,-2.06,-1.78,-345.58,-390.38,-282.53
3.0,2024-05-10 14:36:00.635406336,3.24,-2.06,-1.78,-345.58,-390.38,-282.53
3.0,2024-05-10 14:36:00.644909568,2.62125,-2.95375,-1.06125,-419.41178571428566,-329.2166071428572,-242.9072321428571
3.0,2024-05-10 14:36:00.654676992,2.25,-3.49,-0.63,-481.14,-278.08,-209.78
3.0,2024-05-10 14:36:00.664964352,2.25,-3.4899999999999998,-0.63,-481.14,-278.08,-209.78
3.0,2024-05-10 14:36:00.675231488,1.6259493670886076,-4.060886075949368,0.20797468354430382,-497.29282700421936,-277.55552742616027,-207.04345991561183
3.0,2024-05-10 14:36:00.685466368,-2.68,-8.0,5.99,-829.16,-266.78,-150.82
3.0,2024-05-10 14:36:00.694745600,-2.6799999999999997,-8.0,5.99,-829.16,-266.78,-150.82
3.0,2024-05-10 14:36:00.704850688,-2.68,-8.0,5.99,-829.16,-266.78,-150.82
3.0,2024-05-10 14:36:00.715018752,-2.4343307086614177,-7.789645669291338,6.086732283464567,-783.7779527559055,-236.05881889763776,-129.43748031496062
3.0,2024-05-10 14:36:00.725167104,-1.08,-6.63,6.62,-5.8,290.59,237.12
3.0,2024-05-10 14:36:00.734898944,-1.08,-6.63,6.62,-5.8,290.59,237.12000000000003
3.0,2024-05-10 14:36:00.744903168,-1.08,-6.63,6.62,-5.8,290.59,237.12
3.0,2024-05-10 14:36:00.755134208,-0.31275000000000003,-5.750375,4.7445,132.30095833333334,316.318,256.15358333333336
3.0,2024-05-10 14:36:00.765313280,0.9,-4.36,1.78,488.89,382.75,305.3
3.0,2024-05-10 14:36:00.774849536,0.9,-4.36,1.78,488.89,382.75,305.3
3.0,2024-05-10 14:36:00.784699136,0.9,-4.36,1.7799999999999998,488.89,382.75,305.3
3.0,2024-05-10 14:36:00.794600448,1.9046351931330474,-3.975107296137339,0.22085836909871248,467.4348068669528,403.50536480686696,339.0647210300429
3.0,2024-05-10 14:36:00.804997376,3.98,-3.18,-3.0,408.26,460.75,432.19
3.0,2024-05-10 14:36:00.815036672,3.98,-3.18,-3.0,408.26,460.75,432.19
3.0,2024-05-10 14:36:00.825025792,3.98,-3.18,-3.0,408.26,460.75,432.19
3.0,2024-05-10 14:36:00.835195904,3.81665306122449,-2.8420408163265307,-2.8310204081632655,420.5416326530612,401.2569387755102,402.00355102040817
3.0,2024-05-10 14:36:00.845303552,3.4,-1.98,-2.4,452.51,246.4,323.43
3.0,2024-05-10 14:36:00.855172608,3.4,-1.98,-2.4,452.51,246.4,323.43
3.0,2024-05-10 14:36:00.865305088,3.4,-1.98,-2.4,452.51,246.4,323.43
3.0,2024-05-10 14:36:00.875142400,3.3390322580645164,-2.136774193548387,-1.4070967741935483,372.85023041474653,367.255668202765,386.22815668202765
3.0,2024-05-10 14:36:00.884951552,3.33,-2.16,-1.26,349.0,403.44,405.03
3.0,2024-05-10 14:36:00.894728960,3.33,-2.16,-1.26,349.0,403.44,405.03
3.0,2024-05-10 14:36:00.904864000,3.33,-2.16,-1.26,349.0,403.44,405.03
3.0,2024-05-10 14:36:00.915266816,3.3736170212765955,-1.9680851063829787,-1.0942553191489364,158.37234042553192,515.606085106383,570.1251063829787
3.0,2024-05-10 14:36:00.925012224,3.38,-1.94,-1.07,101.5,549.07,619.38
3.0,2024-05-10 14:36:00.934955520,3.38,-1.94,-1.07,101.5,549.07,619.38
3.0,2024-05-10 14:36:00.945071360,3.3309999999999995,-1.94,-1.0426363636363638,101.5,549.07,619.38
3.0,2024-05-10 14:36:00.955014912,2.61,-1.94,-0.64,-50.83326612903226,343.60185483870964,585.1585483870969
3.0,2024-05-10 14:36:00.965043968,2.61,-1.94,-0.64,-51.45,342.77,585.02
3.0,2024-05-10 14:36:00.974869248,2.61,-1.94,-0.64,-51.45,342.77,585.02
3.0,2024-05-10 14:36:00.984718080,2.5851599999999997,-1.95296,-0.6410800000000001,-50.74176,339.86456,584.13524
3.0,2024-05-10 14:36:00.994872064,2.38,-2.06,-0.65,7.57,100.65,511.2900000000001
3.0,2024-05-10 14:36:01.005076480,2.38,-2.06,-0.65,7.57,100.65,511.29
3.0,2024-05-10 14:36:01.014641408,2.38,-2.06,-0.65,7.57,100.65,511.29
3.0,2024-05-10 14:36:01.024627200,2.3958536585365855,-2.0885365853658535,-0.6452439024390245,10.568048780487805,91.51829268292683,507.11000000000007
3.0,2024-05-10 14:36:01.035034880,2.48,-2.24,-0.62,69.03,-86.55,425.6
3.0,2024-05-10 14:36:01.044938240,2.48,-2.24,-0.62,69.03,-86.55,425.6
3.0,2024-05-10 14:36:01.055254272,2.4800000000000004,-2.24,-0.6200000000000001,69.03,-86.55,425.6
3.0,2024-05-10 14:36:01.064977408,2.7296666666666667,-2.1552916666666664,-0.30345833333333333,45.2855,-51.242,431.23225
3.0,2024-05-10 14:36:01.074813696,3.04,-2.05,0.09,-4.03,22.09,442.93
3.0,2024-05-10 14:36:01.085018880,3.04,-2.05,0.09,-4.03,22.09,442.93
3.0,2024-05-10 14:36:01.094975488,3.04,-2.05,0.09,-4.03,22.09,442.93
3.0,2024-05-10 14:36:01.105004800,3.33296875,-2.126171875,-0.26156250000000003,-130.77699218749999,169.64316406249998,492.22683593749997
3.0,2024-05-10 14:36:01.115013376,3.54,-2.18,-0.51,-259.52,319.52000000000004,542.3
3.0,2024-05-10 14:36:01.124750080,3.54,-2.18,-0.51,-259.52,319.52,542.3
3.0,2024-05-10 14:36:01.134735360,3.54,-2.18,-0.51,-259.52,319.52,542.3
3.0,2024-05-10 14:36:01.144912128,4.461769911504425,-1.8281415929203542,-1.6646902654867255,-176.29123893805308,253.66867256637167,424.816814159292
3.0,2024-05-10 14:36:01.155161088,5.4,-1.47,-2.84,-18.37,128.72,201.9
3.0,2024-05-10 14:36:01.164937216,5.4,-1.47,-2.84,-18.37,128.72,201.9
3.0,2024-05-10 14:36:01.174496768,5.4,-1.47,-2.84,-18.37,128.72,201.9
3.0,2024-05-10 14:36:01.184730368,5.938461538461538,0.07615384615384618,-2.4246153846153846,-0.01867521367521383,-54.53316239316239,171.1334188034188
3.0,2024-05-10 14:36:01.194786304,6.1,0.54,-2.3,5.62,-110.84,161.68
3.0,2024-05-10 14:36:01.204599296,6.1,0.54,-2.3,5.619999999999999,-110.84,161.68
3.0,2024-05-10 14:36:01.214468608,6.114297872340425,0.5551914893617022,-2.2457872340425533,5.62,-110.84,161.68
3.0,2024-05-10 14:36:01.224820224,6.58,1.05,-0.48,-81.4328,-22.481600000000004,31.043200000000002
3.0,2024-05-10 14:36:01.234864896,6.58,1.05,-0.48,-107.73,4.21,-8.42
3.0,2024-05-10 14:36:01.244920832,6.58,1.05,-0.48,-107.73,4.21,-8.42
3.0,2024-05-10 14:36:01.255329280,6.038846153846153,0.8696153846153847,-0.45307692307692304,-64.14961538461539,20.49576923076923,-101.74076923076923
3.0,2024-05-10 14:36:01.265063424,4.57,0.38,-0.38,54.14,64.7,-355.04
3.0,2024-05-10 14:36:01.274940416,4.57,0.38,-0.38,54.14,64.7,-355.04
3.0,2024-05-10 14:36:01.284913408,4.57,0.38,-0.38,54.14,64.7,-355.04
3.0,2024-05-10 14:36:01.294830080,4.163666666666667,-0.08383333333333333,-0.5486666666666667,56.155,55.342708333333334,-409.30958333333336
3.0,2024-05-10 14:36:01.305120256,3.51,-0.8300000000000001,-0.82,61.58,30.15,-555.4200000000001
3.0,2024-05-10 14:36:01.314823424,3.51,-0.83,-0.82,61.58,30.15,-555.42
3.0,2024-05-10 14:36:01.324860672,3.51,-0.8300000000000001,-0.82,61.58,30.15,-555.4200000000001
3.0,2024-05-10 14:36:01.334961920,3.4597816593886463,-1.1463755458515283,-0.9806986899563318,27.634410480349345,37.50694323144105,-562.5703930131004
3.0,2024-05-10 14:36:01.344931328,3.41,-1.46,-1.14,-28.81,49.74,-574.46
3.0,2024-05-10 14:36:01.355326208,3.41,-1.46,-1.14,-28.81,49.74,-574.46
3.0,2024-05-10 14:36:01.365302016,3.41,-1.46,-1.14,-28.81,49.74,-574.46
3.0,2024-05-10 14:36:01.374955776,3.439237288135593,-2.068135593220339,-1.1283050847457627,-24.65093220338983,-17.862966101694912,-599.7283898305085
3.0,2024-05-10 14:36:01.385246208,3.4599999999999995,-2.5,-1.12,-20.2,-90.21,-626.77
3.0,2024-05-10 14:36:01.394912000,3.46,-2.5,-1.12,-20.2,-90.21,-626.77
3.0,2024-05-10 14:36:01.404636672,3.46,-2.5,-1.12,-20.2,-90.21,-626.77
3.0,2024-05-10 14:36:01.415186944,3.320153846153846,-2.422307692307692,-0.9646153846153847,-20.2,-90.21,-626.77
3.0,2024-05-10 14:36:01.425279488,3.28,-2.4,-0.92,-51.556244131455394,-115.23835680751174,-612.5810798122066
3.0,2024-05-10 14:36:01.434983168,3.28,-2.4,-0.92,-52.31,-115.84,-612.24
3.0,2024-05-10 14:36:01.445009152,3.28,-2.4,-0.92,-52.31,-115.84,-612.24
3.0,2024-05-10 14:36:01.454885376,3.1726829268292684,-2.321951219512195,-1.144390243902439,-87.1219918699187,-176.32752032520324,-590.6969918699186
3.0,2024-05-10 14:36:01.464654592,3.17,-2.32,-1.15,-91.06,-183.17,-588.26
3.0,2024-05-10 14:36:01.474595072,3.17,-2.32,-1.15,-91.06,-183.17,-588.26
3.0,2024-05-10 14:36:01.484716032,3.20864,-2.28304,-1.2474399999999999,-93.39984,-188.19335999999998,-586.72464
3.0,2024-05-10 14:36:01.494937344,3.4,-2.1,-1.73,-127.62,-261.66,-564.27
3.0,2024-05-10 14:36:01.504863744,3.4,-2.1,-1.73,-127.62,-261.66,-564.27
3.0,2024-05-10 14:36:01.514632448,3.4,-2.1,-1.73,-127.62,-261.66,-564.27
3.0,2024-05-10 14:36:01.524708864,3.4,-2.1,-1.73,-127.62,-261.66,-564.27
3.0,2024-05-10 14:36:01.534899712,3.8668669527896995,-1.4139914163090128,-2.2635622317596567,-142.28343347639486,-429.60824034334763,-529.0263090128755
3.0,2024-05-10 14:36:01.545088000,3.89,-1.38,-2.29,-143.01,-437.93,-527.28
3.0,2024-05-10 14:36:01.555600896,3.89,-1.38,-2.29,-143.01,-437.93,-527.28
3.0,2024-05-10 14:36:01.565170432,3.697142857142857,-1.7142857142857142,-2.2985714285714285,-192.61714285714285,-404.435,-491.68071428571426
3.0,2024-05-10 14:36:01.575020544,3.44,-2.16,-2.31,-374.51000000000005,-281.62,-361.15
3.0,2024-05-10 14:36:01.585216256,3.44,-2.16,-2.31,-374.51,-281.62,-361.15
3.0,2024-05-10 14:36:01.595272448,3.44,-2.16,-2.31,-374.51000000000005,-281.62,-361.15
3.0,2024-05-10 14:36:01.605261568,2.78,-2.9030769230769233,-1.5115384615384615,-359.39162393162394,-318.1554700854701,-409.0805555555556
3.0,2024-05-10 14:36:01.615334656,2.01,-3.77,-0.58,-332.89,-382.2,-493.1
3.0,2024-05-10 14:36:01.625091584,2.01,-3.77,-0.58,-332.89,-382.2,-493.1
3.0,2024-05-10 14:36:01.634679040,2.01,-3.77,-0.58,-332.89,-382.2,-493.1
3.0,2024-05-10 14:36:01.645035264,-0.16289062500000015,-5.7097265625,2.6297265624999997,-460.027421875,-288.646875,-322.01890625
3.0,2024-05-10 14:36:01.655343104,-2.3699999999999997,-7.68,5.89,-651.98,-147.4,-63.72
3.0,2024-05-10 14:36:01.664981760,-2.37,-7.68,5.89,-651.98,-147.4,-63.72
3.0,2024-05-10 14:36:01.674849792,-2.37,-7.68,5.89,-651.98,-147.4,-63.72
3.0,2024-05-10 14:36:01.684802304,-1.6940944881889763,-7.097322834645669,6.158031496062992,-268.55417322834643,-16.355669291338582,41.49299212598426
3.0,2024-05-10 14:36:01.695132416,-1.21,-6.68,6.35,146.3,125.43,155.33
3.0,2024-05-10 14:36:01.705358080,-1.21,-6.68,6.35,146.3,125.43,155.33
3.0,2024-05-10 14:36:01.715435264,-1.21,-6.68,6.35,146.3,125.43,155.33
3.0,2024-05-10 14:36:01.725317376,0.6730578512396694,-4.623388429752065,1.802892561983471,383.4084297520661,348.943305785124,283.6404545454546
3.0,2024-05-10 14:36:01.735496704,0.96,-4.31,1.11,466.86,427.61,328.8
3.0,2024-05-10 14:36:01.745025792,0.96,-4.31,1.11,466.86,427.61,328.8
3.0,2024-05-10 14:36:01.755024384,0.96,-4.31,1.11,466.86,427.61,328.8
3.0,2024-05-10 14:36:01.765184256,3.548048780487805,-3.2234146341463417,-2.2386585365853655,494.7052032520325,365.9735772357724,377.7613008130081
3.0,2024-05-10 14:36:01.775258112,3.58,-3.21,-2.28,497.44,359.92,382.57
3.0,2024-05-10 14:36:01.785284096,3.5799999999999996,-3.21,-2.28,497.44,359.92,382.57
3.0,2024-05-10 14:36:01.795168768,3.5591732283464568,-3.121259842519685,-2.256456692913386,497.44,359.92,382.57
3.0,2024-05-10 14:36:01.805434624,3.35,-2.23,-2.02,421.7758333333333,330.68566666666663,346.06675
3.0,2024-05-10 14:36:01.815211264,3.35,-2.23,-2.02,421.14,330.44,345.76000000000005
3.0,2024-05-10 14:36:01.825121280,3.35,-2.23,-2.02,421.13999999999993,330.44,345.76
3.0,2024-05-10 14:36:01.835396352,3.3987200000000004,-2.2232800000000004,-1.92424,407.7616,349.04879999999997,360.3792
3.0,2024-05-10 14:36:01.845422592,3.93,-2.15,-0.88,253.91,563.05,528.5
3.0,2024-05-10 14:36:01.855402752,3.93,-2.15,-0.88,253.91,563.05,528.5
3.0,2024-05-10 14:36:01.865140480,3.93,-2.15,-0.88,253.91,563.05,528.5
3.0,2024-05-10 14:36:01.874495488,3.5576399999999997,-2.02472,-0.86956,227.9612,545.9003999999999,534.9994399999999
3.0,2024-05-10 14:36:01.884628736,2.86,-1.79,-0.85,63.11,436.95,576.29
3.0,2024-05-10 14:36:01.895055360,2.86,-1.79,-0.85,63.11,436.95,576.29
3.0,2024-05-10 14:36:01.905268224,2.86,-1.79,-0.85,63.11,436.95,576.29
3.0,2024-05-10 14:36:01.915059200,2.8306976744186048,-1.9323255813953488,-0.3769767441860465,15.570604651162792,391.8207906976744,568.1030697674418
3.0,2024-05-10 14:36:01.924542208,2.79,-2.13,0.28,-85.02,296.33,550.78
3.0,2024-05-10 14:36:01.934742784,2.79,-2.13,0.28,-85.02,296.33,550.78
3.0,2024-05-10 14:36:01.945102080,2.79,-2.13,0.28,-85.02,296.33,550.78
3.0,2024-05-10 14:36:01.955164928,2.5823809523809524,-2.086746031746032,0.18916666666666668,-95.72142857142858,283.53714285714284,546.1257142857143
3.0,2024-05-10 14:36:01.965006080,2.31,-2.03,0.07,-109.99,266.48,539.92
3.0,2024-05-10 14:36:01.974542592,2.31,-2.03,0.07,-109.99,266.48,539.92
3.0,2024-05-10 14:36:01.984665600,2.31,-2.03,0.07,-109.99,266.48,539.92
3.0,2024-05-10 14:36:01.994670592,2.299433198380567,-2.0734412955465586,0.02538461538461539,-97.14740890688259,241.87627530364372,528.3028340080971
3.0,2024-05-10 14:36:02.004719360,2.22,-2.4,-0.31,3.3,49.44,437.44
3.0,2024-05-10 14:36:02.014817024,2.22,-2.4,-0.31,3.3,49.44,437.44
3.0,2024-05-10 14:36:02.025281536,2.22,-2.4,-0.31,3.3,49.44,437.44
3.0,2024-05-10 14:36:02.035235328,2.6786234817813765,-2.283400809716599,-0.09234817813765182,-25.31344129554656,-26.948016194331984,413.62267206477736
3.0,2024-05-10 14:36:02.044902656,2.81,-2.25,-0.03,-33.51,-48.83,406.8
3.0,2024-05-10 14:36:02.055059200,2.88085020242915,-2.279352226720648,-0.007732793522267205,-33.51,-48.83,406.8
3.0,2024-05-10 14:36:02.065154560,3.51,-2.54,0.19,-147.45281250000002,29.3884375,410.7240625
3.0,2024-05-10 14:36:02.074990080,3.51,-2.54,0.19,-159.24,37.48,411.13
3.0,2024-05-10 14:36:02.084917504,3.5100000000000002,-2.54,0.19,-159.24,37.47999999999999,411.13
3.0,2024-05-10 14:36:02.095028480,4.0558015267175564,-2.27206106870229,-0.38557251908396944,-141.68702290076337,49.7148854961832,405.4854198473282
3.0,2024-05-10 14:36:02.105487104,6.26,-1.19,-2.71,17.64,160.77,354.25
3.0,2024-05-10 14:36:02.115161344,6.26,-1.19,-2.71,17.64,160.77000000000004,354.25
3.0,2024-05-10 14:36:02.124642048,6.26,-1.19,-2.71,17.64,160.77,354.25
3.0,2024-05-10 14:36:02.134911744,6.457091633466136,-0.7003187250996016,-2.6185657370517927,5.71573705179283,146.65844621513946,338.0638645418327
3.0,2024-05-10 14:36:02.145325568,7.2299999999999995,1.22,-2.26,-112.49,6.7700000000000005,177.60999999999999
3.0,2024-05-10 14:36:02.155237376,7.23,1.22,-2.26,-112.49,6.77,177.61
3.0,2024-05-10 14:36:02.164873984,7.2299999999999995,1.22,-2.26,-112.48999999999998,6.7700000000000005,177.60999999999999
3.0,2024-05-10 14:36:02.174631424,7.12672131147541,1.2661065573770491,-2.1087704918032784,-112.42176229508196,15.111598360655737,115.40672131147542
3.0,2024-05-10 14:36:02.184795904,6.67,1.47,-1.44,-112.12,52.0,-159.67
3.0,2024-05-10 14:36:02.194745856,6.67,1.47,-1.44,-112.12,52.0,-159.67
3.0,2024-05-10 14:36:02.204520448,6.67,1.47,-1.44,-112.12,52.0,-159.67
3.0,2024-05-10 14:36:02.214508544,5.95,0.998,-0.964,-74.62528,37.130559999999996,-241.68952
3.0,2024-05-10 14:36:02.225057792,4.87,0.29,-0.25,18.07,0.37,-444.46
3.0,2024-05-10 14:36:02.235010304,4.87,0.29,-0.25,18.07,0.37,-444.46
3.0,2024-05-10 14:36:02.245101056,4.87,0.29,-0.25,18.07,0.37,-444.46
3.0,2024-05-10 14:36:02.255227904,4.13,-0.5903448275862069,-0.9198275862068965,20.41051724137931,-2.63,-510.6496551724138
3.0,2024-05-10 14:36:02.265038080,3.71,-1.09,-1.3,23.5,-6.59,-598.02
3.0,2024-05-10 14:36:02.275224064,3.71,-1.09,-1.3,23.5,-6.59,-598.02
3.0,2024-05-10 14:36:02.285262592,3.71,-1.09,-1.3,23.5,-6.59,-598.02
3.0,2024-05-10 14:36:02.295138816,3.5937007874015747,-1.812716535433071,-1.0923228346456693,-29.22476377952756,-52.068346456692915,-606.1458661417322
3.0,2024-05-10 14:36:02.305388032,3.57,-1.96,-1.05,-64.03,-82.09,-611.51
3.0,2024-05-10 14:36:02.315376896,3.57,-1.96,-1.05,-64.03,-82.09,-611.51
3.0,2024-05-10 14:36:02.325023744,3.57,-1.96,-1.05,-64.03,-82.09,-611.51
3.0,2024-05-10 14:36:02.335068160,3.4078666666666666,-2.1829333333333336,-0.9689333333333334,-74.31142222222222,-149.63733333333334,-615.4427111111111
3.0,2024-05-10 14:36:02.345015296,3.33,-2.29,-0.93,-79.35,-182.74,-617.37
3.0,2024-05-10 14:36:02.354663424,3.33,-2.29,-0.9299999999999999,-79.34999999999998,-182.74,-617.37
3.0,2024-05-10 14:36:02.364702720,3.3226530612244902,-2.2958775510204084,-0.9336734693877551,-79.35,-182.74,-617.37
3.0,2024-05-10 14:36:02.374562560,3.23,-2.3700000000000006,-0.98,-100.94440329218106,-184.08049382716052,-597.0281893004116
3.0,2024-05-10 14:36:02.384785152,3.23,-2.37,-0.98,-138.31,-186.4,-561.83
3.0,2024-05-10 14:36:02.394582528,3.23,-2.37,-0.98,-138.31,-186.4,-561.83
3.0,2024-05-10 14:36:02.404752384,3.237112068965517,-2.365043103448276,-0.9881896551724138,-138.26155172413795,-187.48189655172416,-560.7608620689655
3.0,2024-05-10 14:36:02.414968064,3.56,-2.14,-1.36,-135.5,-249.15,-499.82
3.0,2024-05-10 14:36:02.424964864,3.56,-2.14,-1.36,-135.5,-249.15,-499.82
3.0,2024-05-10 14:36:02.434889728,3.56,-2.14,-1.36,-135.5,-249.15,-499.82
3.0,2024-05-10 14:36:02.445058304,3.59188679245283,-2.132641509433962,-1.5464150943396227,-135.5,-249.15,-499.81999999999994
3.0,2024-05-10 14:36:02.455416576,3.69,-2.11,-2.12,-203.45697674418602,-317.79170542635654,-480.52565891472864
3.0,2024-05-10 14:36:02.465396224,3.69,-2.11,-2.12,-207.95,-322.33,-479.25
3.0,2024-05-10 14:36:02.475181056,3.69,-2.11,-2.12,-207.95,-322.33,-479.25
3.0,2024-05-10 14:36:02.484928256,3.6965116279069767,-2.0839534883720927,-2.159069767441861,-207.95,-322.33,-479.25
3.0,2024-05-10 14:36:02.494818816,3.71,-2.03,-2.24,-219.32712550607286,-430.4913360323887,-454.4285425101215
3.0,2024-05-10 14:36:02.505312256,3.71,-2.03,-2.24,-223.14,-466.74,-446.11
3.0,2024-05-10 14:36:02.515265536,3.71,-2.03,-2.24,-223.14,-466.74,-446.11
3.0,2024-05-10 14:36:02.524688896,3.118058252427184,-2.3487378640776697,-1.745631067961165,-285.7526213592233,-402.65271844660197,-389.5491262135923
3.0,2024-05-10 14:36:02.535039488,2.8,-2.52,-1.48,-378.54,-307.68,-305.73
3.0,2024-05-10 14:36:02.545140992,2.8,-2.52,-1.48,-378.54,-307.68,-305.73
3.0,2024-05-10 14:36:02.554864128,2.8,-2.5200000000000005,-1.48,-378.54,-307.68000000000006,-305.73
3.0,2024-05-10 14:36:02.564597504,0.4420083682008368,-4.005857740585775,1.3705857740585774,-426.6529707112971,-260.027280334728,-297.96430962343095
3.0,2024-05-10 14:36:02.574473728,-0.12,-4.36,2.05,-493.53,-193.79,-287.17
3.0,2024-05-10 14:36:02.584569856,-0.12,-4.36,2.05,-493.53,-193.79,-287.17
3.0,2024-05-10 14:36:02.594552832,-0.12,-4.36,2.05,-493.53,-193.79,-287.17
3.0,2024-05-10 14:36:02.604645632,-2.2340562248995988,-6.6359839357429715,5.71136546184739,-331.16052208835345,-166.13538152610442,-92.05353413654619
3.0,2024-05-10 14:36:02.614604800,-2.47,-6.89,6.12,-291.38,-159.36,-44.25
3.0,2024-05-10 14:36:02.622316800,-2.47,-6.89,6.12,-291.38,-159.36,-44.25
,,,,,,,
3.0,2024-05-10 14:36:02.649111040,-1.8122222222222222,-5.663333333333333,5.088888888888889,61.75777777777778,184.22222222222223,180.73666666666668
3.0,2024-05-10 14:36:02.654452736,-1.73,-5.51,4.96,105.90000000000002,227.17,208.86
3.0,2024-05-10 14:36:02.664884992,-1.73,-5.51,4.96,105.9,227.17,208.86
3.0,2024-05-10 14:36:02.674748928,-0.8207883817427386,-5.031659751037344,3.674688796680498,195.17999999999998,270.5880082987552,241.20547717842325
3.0,2024-05-10 14:36:02.684744192,0.76,-4.2,1.44,452.94,395.94,334.59
3.0,2024-05-10 14:36:02.694795776,0.76,-4.2,1.44,452.94,395.94,334.59
3.0,2024-05-10 14:36:02.705062144,0.7600000000000001,-4.2,1.44,452.94,395.94,334.59
3.0,2024-05-10 14:36:02.715098880,2.529547325102881,-3.721604938271605,-0.42728395061728397,405.0284773662551,476.24864197530866,426.64761316872426
3.0,2024-05-10 14:36:02.725317632,4.2,-3.27,-2.19,359.8,552.06,513.55
3.0,2024-05-10 14:36:02.735206912,4.2,-3.27,-2.19,359.8,552.06,513.55
3.0,2024-05-10 14:36:02.744750080,4.2,-3.27,-2.19,359.8,552.06,513.55
3.0,2024-05-10 14:36:02.754728960,4.2,-3.27,-2.19,359.8,552.06,513.55
3.0,2024-05-10 14:36:02.764514048,4.2,-3.2699999999999996,-2.19,359.8,552.06,513.55
3.0,2024-05-10 14:36:02.775108864,4.147252747252748,-3.1989377289377288,-2.1636263736263737,357.81904761904764,535.5962637362637,510.5272893772893
3.0,2024-05-10 14:36:02.785190144,3.703188405797101,-2.347826086956522,-1.2932850241545892,342.40985507246376,298.51115942028986,465.9557971014493
3.0,2024-05-10 14:36:02.794667776,3.9,-2.39,-0.82,357.12,254.58,456.3
3.0,2024-05-10 14:36:02.804686336,3.9,-2.39,-0.82,357.12,254.58,456.3
3.0,2024-05-10 14:36:02.814839296,3.9,-2.39,-0.82,357.12,254.58,456.3
3.0,2024-05-10 14:36:02.824510208,3.9,-2.39,-0.82,357.12,254.58,456.3
3.0,2024-05-10 14:36:02.834683648,3.9,-2.39,-0.82,357.12,254.58,456.3
3.0,2024-05-10 14:36:02.844881920,3.9,-2.39,-0.82,357.12,254.58,456.3
3.0,2024-05-10 14:36:02.855110144,3.9,-2.39,-0.82,357.12,254.58,456.3
3.0,2024-05-10 14:36:02.865166592,3.9,-2.39,-0.82,357.12,254.58,456.3
3.0,2024-05-10 14:36:02.875207168,3.9,-2.39,-0.82,357.12,254.58,456.3
3.0,2024-05-10 14:36:02.885374976,3.9,-2.39,-0.82,357.12,254.58,456.3
3.0,2024-05-10 14:36:02.895057664,3.9,-2.39,-0.82,357.12000000000006,254.58,456.3
3.0,2024-05-10 14:36:02.904753152,3.9000000000000004,-2.39,-0.82,357.12,254.58000000000004,456.3
3.0,2024-05-10 14:36:02.915036416,3.9,-2.39,-0.82,357.12,254.58,456.3
3.0,2024-05-10 14:36:02.925125376,3.9,-2.39,-0.82,357.12,254.58,456.3
3.0,2024-05-10 14:36:02.934824960,3.8999999999999995,-2.39,-0.82,357.12,254.58,456.30000000000007
3.0,2024-05-10 14:36:02.944898560,3.7444444444444445,-1.767777777777778,-0.32416666666666666,-19.337142857142858,605.0879365079365,576.7411111111112
3.0,2024-05-10 14:36:02.955081472,3.74,-1.75,-0.31,-31.68,616.5800000000002,580.69
3.0,2024-05-10 14:36:02.965072640,3.5398728813559326,-1.8474152542372881,-0.31254237288135595,-4.472838983050847,444.25516949152546,533.559406779661
3.0,2024-05-10 14:36:02.975429376,3.1200000000000006,-2.28,-0.08,201.78,-387.7,291.44
3.0,2024-05-10 14:36:02.985650176,3.12,-2.28,-0.08,201.78,-387.7,291.44
3.0,2024-05-10 14:36:02.994947584,3.12,-2.2800000000000002,-0.08,201.78,-387.7,291.44
3.0,2024-05-10 14:36:03.005078784,3.12,-2.28,-0.07999999999999999,201.78,-387.7,291.44
3.0,2024-05-10 14:36:03.015101952,3.1200000000000006,-2.28,-0.08,201.78,-387.7,291.44
3.0,2024-05-10 14:36:03.022360832,3.1200000000000006,-2.28,-0.08,201.78,-387.7,291.44
