id,timestamp,acc_x,acc_y,acc_z,gyro_x,gyro_y,gyro_z
0.0,2024-05-10 14:32:30.407936512,1.5299999999999998,-1.2799999999999998,0.14,134.58,99.43,-492.98
0.0,2024-05-10 14:32:30.414941440,1.53,-1.28,0.14,134.58,99.43,-492.98
0.0,2024-05-10 14:32:30.424904448,1.53,-1.28,0.14,134.58,99.43,-492.98
0.0,2024-05-10 14:32:30.435446272,1.53,-1.28,0.14,134.58,99.43,-492.98
0.0,2024-05-10 14:32:30.445104896,1.4999290780141845,-1.3100709219858155,0.14563829787234042,124.71485815602838,98.95826241134753,-487.4619858156028
0.0,2024-05-10 14:32:30.455090688,1.37,-1.44,0.17,82.09,96.92,-463.62000000000006
0.0,2024-05-10 14:32:30.465346048,1.37,-1.44,0.17,82.09,96.92,-463.62
0.0,2024-05-10 14:32:30.475091968,1.0031428571428571,-1.4170714285714285,0.07064285714285715,63.14275000000001,94.5305,-440.96025
0.0,2024-05-10 14:32:30.484932352,0.8900000000000001,-1.41,0.04,54.02,93.38,-430.05
0.0,2024-05-10 14:32:30.495094528,0.89,-1.41,0.04,54.02,93.38,-430.05
0.0,2024-05-10 14:32:30.505240064,-0.3851973684210527,-1.823092105263158,-0.36411184210526315,54.02,93.38,-430.05
0.0,2024-05-10 14:32:30.515365888,-0.53,-1.8700000000000003,-0.41,93.88712802768167,34.34719723183391,-397.75657439446366
0.0,2024-05-10 14:32:30.525507840,-0.53,-1.87,-0.41,129.82,-18.86,-368.65
0.0,2024-05-10 14:32:30.535579904,-0.6223076923076923,-1.8723076923076925,-0.42338461538461536,132.5547692307692,-21.026576923076924,-360.78965384615384
0.0,2024-05-10 14:32:30.545322752,-2.53,-1.92,-0.7,194.46,-70.07,-182.86
0.0,2024-05-10 14:32:30.555079424,-2.53,-1.92,-0.7,194.46,-70.07,-182.86
0.0,2024-05-10 14:32:30.564759552,-2.53,-1.92,-0.7,194.46,-70.07,-182.86
0.0,2024-05-10 14:32:30.574716416,-2.4761678832116787,-1.680985401459854,-0.6547810218978102,177.59416058394163,-67.28401459854014,-151.5565693430657
0.0,2024-05-10 14:32:30.585059072,-2.28,-0.81,-0.49,16.72,-40.71,147.03
0.0,2024-05-10 14:32:30.594779392,-2.28,-0.81,-0.49,16.72,-40.71,147.03
0.0,2024-05-10 14:32:30.601418496,-2.28,-0.8099999999999999,-0.48999999999999994,16.72,-40.71,147.03
0.0,2024-05-10 14:32:30.616139008,-2.1573333333333333,-0.6464444444444445,-0.4000444444444445,16.72,-40.71,147.03
0.0,2024-05-10 14:32:30.625229568,-1.98,-0.41,-0.27,-68.07920000000001,42.19592727272727,322.20141818181816
0.0,2024-05-10 14:32:30.634839040,-1.98,-0.41,-0.27,-70.62,44.68,327.45
0.0,2024-05-10 14:32:30.644731648,-1.9800000000000002,-0.41,-0.27,-70.62,44.68,327.45
0.0,2024-05-10 14:32:30.654955776,-1.2035616438356165,-0.7091780821917808,-0.27,-69.89226027397261,35.830684931506845,403.51335616438354
0.0,2024-05-10 14:32:30.664941824,0.2,-1.25,-0.27,-68.12,14.28,588.75
0.0,2024-05-10 14:32:30.675086080,0.2,-1.25,-0.27,-68.12,14.28,588.75
0.0,2024-05-10 14:32:30.685498112,0.2,-1.25,-0.27,-68.12,14.28,588.75
0.0,2024-05-10 14:32:30.694704128,1.227520325203252,-1.588252032520325,-0.19979674796747968,-29.960243902439025,-13.939512195121951,639.8040650406504
0.0,2024-05-10 14:32:30.704559360,1.8099999999999998,-1.78,-0.16,4.09,-39.12,685.36
0.0,2024-05-10 14:32:30.714995456,1.8100000000000003,-1.7799999999999998,-0.16,4.09,-39.12,685.36
0.0,2024-05-10 14:32:30.725502208,1.81,-1.78,-0.16,4.09,-39.12,685.36
0.0,2024-05-10 14:32:30.735282176,2.8115126050420174,-2.034621848739496,-0.11756302521008404,-13.364411764705883,-3.0638235294117644,711.8607142857143
0.0,2024-05-10 14:32:30.745041920,2.99,-2.08,-0.11,-45.96,64.27,761.35
0.0,2024-05-10 14:32:30.754873600,2.99,-2.08,-0.11,-45.96,64.27,761.35
0.0,2024-05-10 14:32:30.765018368,2.99,-2.08,-0.11,-45.96,64.27,761.35
0.0,2024-05-10 14:32:30.775354624,2.32,-1.54,-0.23,-254.45321167883213,72.52963503649636,595.6289051094891
0.0,2024-05-10 14:32:30.785253888,2.32,-1.54,-0.23,-270.87,73.18,582.58
0.0,2024-05-10 14:32:30.795069696,2.32,-1.54,-0.23,-270.87,73.18,582.58
0.0,2024-05-10 14:32:30.804990976,2.307546468401487,-1.5426022304832716,-0.22516728624535315,-270.87,73.18,582.58
0.0,2024-05-10 14:32:30.814746112,1.65,-1.68,0.03,-240.4149805447471,-4.6312451361867675,538.094085603113
0.0,2024-05-10 14:32:30.824812544,1.65,-1.68,0.030000000000000002,-231.92999999999998,-26.31,525.7
0.0,2024-05-10 14:32:30.834651136,1.65,-1.68,0.03,-231.93,-26.31,525.7
0.0,2024-05-10 14:32:30.844470016,1.7113888888888888,-1.6540277777777779,0.06069444444444445,-200.51725694444445,-56.683194444444446,519.5103472222222
0.0,2024-05-10 14:32:30.854943488,1.91,-1.57,0.16,-47.3,-204.83,489.32
0.0,2024-05-10 14:32:30.864548864,1.91,-1.57,0.16,-47.3,-204.83,489.32
0.0,2024-05-10 14:32:30.874882048,1.9099999999999997,-1.57,0.16,-47.3,-204.83,489.31999999999994
0.0,2024-05-10 14:32:30.884994048,1.91,-1.57,0.16,-47.3,-204.83,489.32
0.0,2024-05-10 14:32:30.894630912,2.512247191011236,-0.44831460674157303,0.6869662921348314,-165.80936329588013,-10.844981273408242,468.1514606741573
0.0,2024-05-10 14:32:30.904749056,2.71,-0.08,0.86,-205.51,54.14,461.05999999999995
0.0,2024-05-10 14:32:30.915152640,2.71,-0.08,0.86,-205.51,54.14,461.06
0.0,2024-05-10 14:32:30.924935680,2.4878225806451613,-0.021532258064516127,0.783991935483871,-203.7928629032258,77.34020161290321,398.5747177419355
0.0,2024-05-10 14:32:30.935437568,2.33,0.02,0.73,-200.5,121.83,278.75
0.0,2024-05-10 14:32:30.945240576,2.33,0.02,0.73,-200.5,121.83,278.75
0.0,2024-05-10 14:32:30.955190272,2.33,0.02,0.73,-200.5,121.82999999999998,278.75
0.0,2024-05-10 14:32:30.964939776,2.5131967213114756,-0.047172131147540985,0.5529098360655738,-163.825368852459,96.27258196721311,179.1738524590164
0.0,2024-05-10 14:32:30.975183360,2.63,-0.09,0.44,-110.11,58.84,33.33
0.0,2024-05-10 14:32:30.985255424,2.63,-0.09,0.44,-110.11,58.84,33.33
0.0,2024-05-10 14:32:30.994765824,2.63,-0.09,0.44,-110.11,58.84,33.33
0.0,2024-05-10 14:32:31.004487424,3.3077695167286243,-0.5120074349442378,0.8364312267657993,-90.1446096654275,69.42810408921933,-37.694163568773234
0.0,2024-05-10 14:32:31.014910464,3.6899999999999995,-0.75,1.06,-72.02,79.04,-102.17
0.0,2024-05-10 14:32:31.024937472,3.69,-0.75,1.06,-72.02,79.04,-102.17
0.0,2024-05-10 14:32:31.035086336,3.69,-0.75,1.06,-72.02,79.04,-102.17
0.0,2024-05-10 14:32:31.045166592,3.5745255474452553,-1.3273722627737226,0.4908759124087591,-40.95295620437956,170.0170072992701,-155.17919708029197
0.0,2024-05-10 14:32:31.054792704,3.55,-1.45,0.37,-14.89,246.34,-199.65
0.0,2024-05-10 14:32:31.064795904,3.55,-1.45,0.37,-14.89,246.33999999999997,-199.65
0.0,2024-05-10 14:32:31.074995712,3.55,-1.45,0.37,-14.89,246.34,-199.65
0.0,2024-05-10 14:32:31.084794368,3.467290076335878,-1.3973664122137404,0.219618320610687,41.08969465648855,208.5763358778626,-267.44954198473283
0.0,2024-05-10 14:32:31.094578432,3.44,-1.38,0.17,59.94,195.86,-290.28
0.0,2024-05-10 14:32:31.104548608,3.44,-1.38,0.17,59.940000000000005,195.86,-290.28
0.0,2024-05-10 14:32:31.114821632,3.4216326530612244,-1.3637755102040816,0.17857142857142858,59.940000000000005,195.86,-290.28
0.0,2024-05-10 14:32:31.125168384,2.84,-0.85,0.45,106.2755871886121,211.7239145907473,-321.77081850533807
0.0,2024-05-10 14:32:31.135529728,2.84,-0.85,0.45,118.59,215.94,-330.14
0.0,2024-05-10 14:32:31.144871424,2.84,-0.85,0.45,118.59,215.94,-330.14
0.0,2024-05-10 14:32:31.155086592,2.785581395348837,-0.8309966777408637,0.4266777408637874,127.82671096345516,212.91923588039867,-335.3052823920266
0.0,2024-05-10 14:32:31.165303552,2.21,-0.63,0.18,229.8,179.57,-392.33
0.0,2024-05-10 14:32:31.174791424,2.21,-0.63,0.18,229.8,179.57,-392.33
0.0,2024-05-10 14:32:31.184878592,2.21,-0.63,0.18,229.79999999999998,179.57,-392.33
0.0,2024-05-10 14:32:31.195132160,2.160791366906475,-0.6956115107913668,0.18820143884892088,243.4958273381295,180.4059712230216,-409.5691366906475
0.0,2024-05-10 14:32:31.205114112,1.97,-0.9499999999999998,0.22,297.79,183.72,-477.9100000000001
0.0,2024-05-10 14:32:31.214649856,1.97,-0.95,0.22,297.79,183.72,-477.91
0.0,2024-05-10 14:32:31.225264128,1.9700000000000002,-0.95,0.22,297.79,183.72,-477.91
0.0,2024-05-10 14:32:31.235019008,1.8319402985074626,-1.2882462686567164,0.05432835820895523,349.2066417910448,105.91679104477612,-512.0081343283583
0.0,2024-05-10 14:32:31.245353728,1.7699999999999998,-1.44,-0.02,380.8,58.11000000000001,-532.96
0.0,2024-05-10 14:32:31.255490048,1.77,-1.44,-0.02,380.8,58.11,-532.96
0.0,2024-05-10 14:32:31.265540864,1.77,-1.44,-0.02,380.8,58.11,-532.96
0.0,2024-05-10 14:32:31.275359232,1.77,-1.44,-0.02,380.8,58.11,-532.96
0.0,2024-05-10 14:32:31.284765440,1.7827659574468084,-1.318723404255319,0.18425531914893617,332.52712765957443,17.231985815602837,-524.5495390070922
0.0,2024-05-10 14:32:31.294847744,1.79,-1.25,0.3,304.75,-6.29,-519.71
0.0,2024-05-10 14:32:31.305118208,1.7905460750853242,-1.2495904436860068,0.30051194539249143,304.75,-6.29,-519.71
0.0,2024-05-10 14:32:31.315191040,1.95,-1.13,0.45,141.70992647058824,78.97419117647058,-527.0335294117647
0.0,2024-05-10 14:32:31.325374208,1.95,-1.13,0.45,126.65,86.85,-527.71
0.0,2024-05-10 14:32:31.335267584,1.95,-1.13,0.45,126.65,86.85,-527.71
0.0,2024-05-10 14:32:31.345121280,1.8214285714285714,-1.2319163763066203,0.3935540069686411,124.42282229965156,89.7642857142857,-526.7302787456446
0.0,2024-05-10 14:32:31.355357440,1.13,-1.78,0.09,89.05,136.05,-511.16999999999996
0.0,2024-05-10 14:32:31.365347328,1.13,-1.78,0.09,89.05,136.05,-511.16999999999996
0.0,2024-05-10 14:32:31.374842112,1.13,-1.78,0.09,89.05,136.05,-511.17
0.0,2024-05-10 14:32:31.384806144,0.7056756756756756,-1.6772972972972973,0.02243243243243243,122.04429054054054,88.01875000000001,-501.2038513513513
0.0,2024-05-10 14:32:31.395065088,-0.44,-1.4,-0.16,273.32,-132.2,-455.51
0.0,2024-05-10 14:32:31.405273088,-0.44,-1.4,-0.16,273.32,-132.2,-455.51
0.0,2024-05-10 14:32:31.415397376,-0.44,-1.4,-0.16,273.32,-132.2,-455.51000000000005
0.0,2024-05-10 14:32:31.425067520,-0.44,-1.4,-0.16,273.32,-132.2,-455.51
0.0,2024-05-10 14:32:31.435010048,-0.44,-1.4,-0.16,273.32,-132.2,-455.51
0.0,2024-05-10 14:32:31.445033728,-0.44,-1.4,-0.16,273.32,-132.2,-455.51
0.0,2024-05-10 14:32:31.455139072,-0.44,-1.4,-0.16,273.32,-132.2,-455.51
0.0,2024-05-10 14:32:31.464797440,-1.0771538461538461,-1.5658076923076925,-0.2851923076923077,214.72261538461538,-112.40011538461538,-392.71884615384613
0.0,2024-05-10 14:32:31.474886912,-3.37,-1.9300000000000002,-0.28,-56.34,-19.9,72.75
0.0,2024-05-10 14:32:31.484923136,-3.37,-1.9299999999999997,-0.28,-56.34,-19.9,72.75
0.0,2024-05-10 14:32:31.494673664,-2.985632183908046,-1.748735632183908,-0.25160919540229887,-56.34,-19.9,72.75
0.0,2024-05-10 14:32:31.504779520,-1.61,-1.1,-0.15,-30.324787644787644,0.8724324324324328,290.2548648648649
0.0,2024-05-10 14:32:31.514539520,-1.61,-1.1,-0.15,-15.75,12.51,412.11
0.0,2024-05-10 14:32:31.524605440,-1.61,-1.1,-0.15,-15.75,12.51,412.11
0.0,2024-05-10 14:32:31.534851584,-1.3850175438596493,-1.1560000000000001,-0.13231578947368422,-19.444736842105264,14.701263157894736,431.4751578947368
0.0,2024-05-10 14:32:31.544865536,0.68,-1.67,0.03,-54.75,35.64,616.52
0.0,2024-05-10 14:32:31.554738432,0.68,-1.67,0.03,-54.75,35.64,616.52
0.0,2024-05-10 14:32:31.564581888,0.68,-1.67,0.029999999999999995,-54.75,35.64,616.52
0.0,2024-05-10 14:32:31.574716928,1.2425255972696245,-1.9672696245733787,-0.02030716723549488,-42.7137542662116,29.392150170648463,653.7032081911262
0.0,2024-05-10 14:32:31.585167872,1.91,-2.32,-0.08,-21.48,18.37,719.3
0.0,2024-05-10 14:32:31.594697472,1.91,-2.32,-0.08,-21.48,18.37,719.3
0.0,2024-05-10 14:32:31.604878080,1.9100000000000001,-2.32,-0.08,-21.48,18.37,719.3
0.0,2024-05-10 14:32:31.614813696,2.2079775280898875,-1.8934831460674157,-0.2903370786516854,-13.745168539325842,29.178988764044945,684.3247191011235
0.0,2024-05-10 14:32:31.624599808,2.42,-1.59,-0.44,-4.27,42.42,641.48
0.0,2024-05-10 14:32:31.634933760,2.42,-1.59,-0.44,-4.27,42.42,641.48
0.0,2024-05-10 14:32:31.645004288,2.42,-1.59,-0.44,-4.27,42.42,641.48
0.0,2024-05-10 14:32:31.655080704,1.9177205882352941,-1.9172426470588235,-0.01382352941176471,-47.77441176470589,54.33176470588235,600.9667647058823
0.0,2024-05-10 14:32:31.665401856,1.76,-2.02,0.12,-70.01,60.419999999999995,580.26
0.0,2024-05-10 14:32:31.675268608,1.76,-2.02,0.12,-70.01,60.42000000000001,580.26
0.0,2024-05-10 14:32:31.685347584,1.7740077821011673,-2.0112451361867705,0.10949416342412452,-70.01,60.42,580.26
0.0,2024-05-10 14:32:31.695214848,2.0,-1.87,-0.06,-22.992206405693953,64.03921708185054,598.6843772241992
0.0,2024-05-10 14:32:31.705143296,2.0,-1.87,-0.06,-11.29,64.94,603.27
0.0,2024-05-10 14:32:31.714773760,2.0,-1.87,-0.060000000000000005,-11.29,64.94,603.27
0.0,2024-05-10 14:32:31.724973568,1.9933333333333334,-1.8704166666666668,-0.05666666666666667,-11.29,64.94,603.27
0.0,2024-05-10 14:32:31.735408896,1.84,-1.8799999999999997,0.02,-77.48547619047619,5.831666666666667,521.7678571428571
0.0,2024-05-10 14:32:31.745485056,1.8400000000000003,-1.88,0.02,-79.1,4.39,519.78
0.0,2024-05-10 14:32:31.755197952,1.84,-1.88,0.02,-79.1,4.39,519.78
0.0,2024-05-10 14:32:31.764878080,2.0626241134751777,-1.8023404255319149,0.23485815602836882,-105.34553191489361,25.104326241134753,531.8737588652482
0.0,2024-05-10 14:32:31.774947072,2.7,-1.58,0.85,-247.31000000000003,137.15,597.29
0.0,2024-05-10 14:32:31.784630016,2.7,-1.58,0.85,-247.31000000000003,137.15,597.29
0.0,2024-05-10 14:32:31.794674944,2.7,-1.58,0.85,-247.31000000000003,137.15,597.29
0.0,2024-05-10 14:32:31.804841216,2.7348591549295778,-1.5625704225352115,0.6338732394366198,-244.13827464788733,131.75647887323944,572.2034859154929
0.0,2024-05-10 14:32:31.815199744,2.8,-1.53,0.23,-225.34000000000003,99.79,423.52
0.0,2024-05-10 14:32:31.825229568,2.8,-1.53,0.23,-225.34,99.79,423.52
0.0,2024-05-10 14:32:31.834936576,2.8,-1.53,0.23,-225.34,99.79,423.52
0.0,2024-05-10 14:32:31.844837376,3.4341496598639454,-1.234421768707483,0.7297959183673469,-223.4471428571429,92.20054421768707,346.6339455782313
0.0,2024-05-10 14:32:31.855244032,3.98,-0.9800000000000001,1.16,-220.09,78.74,210.27
0.0,2024-05-10 14:32:31.865042688,3.98,-0.98,1.16,-220.09,78.74,210.27
0.0,2024-05-10 14:32:31.874863616,3.9799999999999995,-0.9800000000000001,1.16,-220.09,78.74,210.27
0.0,2024-05-10 14:32:31.884768768,3.5532363636363637,-1.2585818181818182,1.0236727272727273,-141.70654545454548,65.2841818181818,37.111636363636364
0.0,2024-05-10 14:32:31.895141120,3.26,-1.45,0.93,-60.42,51.33,-142.46
0.0,2024-05-10 14:32:31.905157120,3.26,-1.45,0.93,-60.42000000000001,51.33,-142.46
0.0,2024-05-10 14:32:31.915079424,3.26,-1.45,0.9299999999999999,-60.419999999999995,51.33,-142.46
0.0,2024-05-10 14:32:31.925043712,3.4136101083032493,-1.3030685920577616,0.7496750902527076,-27.546281588447656,94.45007220216607,-218.06194945848378
0.0,2024-05-10 14:32:31.935196416,3.49,-1.23,0.66,-4.21,125.05999999999999,-271.73
0.0,2024-05-10 14:32:31.945180672,3.4899999999999998,-1.23,0.66,-4.21,125.06,-271.73
0.0,2024-05-10 14:32:31.955255296,3.49,-1.23,0.66,-4.21,125.06000000000002,-271.73
0.0,2024-05-10 14:32:31.965091840,2.528992537313433,-1.0492164179104477,0.21279850746268658,-4.983731343283583,213.8638059701493,-304.67402985074625
0.0,2024-05-10 14:32:31.975269120,2.48,-1.04,0.19,-5.49,271.97,-326.23
0.0,2024-05-10 14:32:31.984840448,2.48,-1.04,0.19,-5.49,271.97,-326.23
0.0,2024-05-10 14:32:31.994907648,2.416326530612245,-1.0152380952380953,0.19,-3.4363945578231294,270.3134013605443,-326.2574829931973
0.0,2024-05-10 14:32:32.005292032,1.76,-0.76,0.19,145.45,150.21,-328.25
0.0,2024-05-10 14:32:32.015046912,1.76,-0.76,0.19,145.45,150.21,-328.25
0.0,2024-05-10 14:32:32.024697344,1.76,-0.76,0.19,145.45,150.21,-328.25
0.0,2024-05-10 14:32:32.035065088,1.8063940520446098,-0.7165055762081785,0.23784386617100373,147.09174721189592,149.90152416356878,-331.80115241635684
0.0,2024-05-10 14:32:32.044674304,2.08,-0.46,0.52,194.52,140.99,-434.39
0.0,2024-05-10 14:32:32.055022848,2.08,-0.45999999999999996,0.52,194.52,140.99,-434.38999999999993
0.0,2024-05-10 14:32:32.065232384,2.08,-0.46,0.52,194.52,140.99,-434.39
0.0,2024-05-10 14:32:32.075040768,2.143094339622641,-0.6625660377358491,0.47018867924528307,210.31222641509436,154.052679245283,-441.05792452830184
0.0,2024-05-10 14:32:32.084999680,2.27,-1.07,0.37,267.94,201.72,-465.39
0.0,2024-05-10 14:32:32.095194368,2.27,-1.07,0.37,267.94,201.72,-465.39000000000004
0.0,2024-05-10 14:32:32.105226240,2.27,-1.07,0.37,267.94,201.72,-465.39
0.0,2024-05-10 14:32:32.115113472,2.3054385964912285,-1.1904912280701756,0.2672280701754386,270.81761403508773,203.83922807017544,-482.7584561403509
0.0,2024-05-10 14:32:32.125330176,2.37,-1.41,0.08,276.06,207.7,-514.4
0.0,2024-05-10 14:32:32.135552256,2.37,-1.41,0.08,276.06,207.7,-514.4
0.0,2024-05-10 14:32:32.145176576,2.37,-1.41,0.08,276.06,207.7,-514.4
0.0,2024-05-10 14:32:32.154738176,2.1780794701986754,-1.3140397350993376,0.11655629139072848,278.85536423841063,198.60562913907282,-513.7274834437086
0.0,2024-05-10 14:32:32.165251584,1.95,-1.2,0.16,304.2,116.15,-507.63
0.0,2024-05-10 14:32:32.174990080,1.9499999999999997,-1.2,0.16,304.2,116.14999999999999,-507.63000000000005
0.0,2024-05-10 14:32:32.184962816,1.9499999999999997,-1.2,0.16,304.2,116.15,-507.63
0.0,2024-05-10 14:32:32.194453248,2.188326848249027,-1.043385214007782,0.3778988326848249,278.472140077821,79.42287937743191,-541.7374319066148
0.0,2024-05-10 14:32:32.204865024,2.3,-0.97,0.48,259.22,51.94,-567.26
0.0,2024-05-10 14:32:32.214659072,2.3,-0.97,0.48,259.22,51.94,-567.26
0.0,2024-05-10 14:32:32.225097728,2.3,-0.97,0.48,259.22,51.94,-567.26
0.0,2024-05-10 14:32:32.235419648,1.6216666666666668,-1.2816666666666667,0.049166666666666664,256.6957142857143,13.470476190476191,-619.022619047619
0.0,2024-05-10 14:32:32.245040640,1.56,-1.31,0.01,255.79999999999998,-0.18,-637.39
0.0,2024-05-10 14:32:32.255044352,1.56,-1.31,0.01,255.8,-0.18,-637.39
0.0,2024-05-10 14:32:32.264921600,1.5368032786885246,-1.307950819672131,0.0028688524590163938,255.8,-0.18,-637.39
0.0,2024-05-10 14:32:32.274664192,-1.27,-1.06,-0.86,331.20620689655175,-252.6153448275862,-622.2210344827586
0.0,2024-05-10 14:32:32.284630528,-1.27,-1.06,-0.86,338.32,-276.43,-620.79
0.0,2024-05-10 14:32:32.294622464,-1.27,-1.06,-0.86,338.32,-276.43,-620.79
0.0,2024-05-10 14:32:32.304809216,-1.6455631399317407,-1.3409556313993176,-0.43569965870307165,276.49348122866894,-263.7596587030717,-576.9408532423207
0.0,2024-05-10 14:32:32.315461120,-2.58,-2.04,0.62,20.51,-211.3,-395.39
0.0,2024-05-10 14:32:32.324927232,-2.58,-2.04,0.62,20.51,-211.3,-395.39
0.0,2024-05-10 14:32:32.335266560,-2.58,-2.04,0.62,20.51,-211.3,-395.38999999999993
0.0,2024-05-10 14:32:32.345189376,-2.5405479452054793,-2.237260273972603,0.6024657534246575,-8.84456621004566,-141.42726027397262,-244.17497716894977
0.0,2024-05-10 14:32:32.355132416,-2.49,-2.49,0.58,-75.44,17.09,98.88
0.0,2024-05-10 14:32:32.365179392,-2.49,-2.49,0.58,-75.44,17.09,98.88
0.0,2024-05-10 14:32:32.375285504,-2.49,-2.49,0.58,-75.44,17.09,98.88
0.0,2024-05-10 14:32:32.385239552,-1.3581467181467184,-2.0924710424710424,0.29289575289575287,-25.224092664092662,43.68938223938224,227.7430115830116
0.0,2024-05-10 14:32:32.395126784,-0.44,-1.77,0.06,36.68,76.48,386.6
0.0,2024-05-10 14:32:32.405482496,-0.44,-1.77,0.06,36.68,76.48,386.6
0.0,2024-05-10 14:32:32.415235328,-0.44,-1.7700000000000002,0.06,36.68,76.48,386.6
0.0,2024-05-10 14:32:32.424686592,0.8458775510204082,-1.8131020408163268,0.06718367346938776,54.01110204081633,92.77208163265306,499.0135510204082
0.0,2024-05-10 14:32:32.434782976,1.35,-1.83,0.07,65.37,103.45,572.69
0.0,2024-05-10 14:32:32.444815872,1.35,-1.83,0.07,65.37,103.45,572.69
0.0,2024-05-10 14:32:32.455336192,1.35,-1.83,0.07,65.37,103.45,572.69
0.0,2024-05-10 14:32:32.465498624,2.054940711462451,-2.024466403162055,0.061897233201581026,-44.24407114624506,170.6190513833992,688.3276679841897
0.0,2024-05-10 14:32:32.475392256,2.22,-2.07,0.06,-91.31,199.46,737.98
0.0,2024-05-10 14:32:32.485458432,2.22,-2.07,0.05999999999999999,-91.31,199.46,737.98
0.0,2024-05-10 14:32:32.495261952,2.2210917030567687,-2.0699126637554586,0.05995633187772925,-91.31,199.46,737.98
0.0,2024-05-10 14:32:32.505263360,2.47,-2.05,0.05,-149.38690036900368,195.45878228782288,812.7453505535055
0.0,2024-05-10 14:32:32.515069184,2.47,-2.05,0.05,-155.03,195.06999999999996,820.01
0.0,2024-05-10 14:32:32.524512256,2.47,-2.05,0.05,-155.03,195.07,820.01
0.0,2024-05-10 14:32:32.534886400,2.4382608695652173,-2.036086956521739,0.043478260869565216,-155.03,195.07,820.01
0.0,2024-05-10 14:32:32.544968192,1.74,-1.73,-0.1,-106.30373134328357,77.6455223880597,719.5767164179105
0.0,2024-05-10 14:32:32.554948608,1.74,-1.73,-0.1,-103.21,70.19,713.2
0.0,2024-05-10 14:32:32.564857856,1.74,-1.73,-0.1,-103.21,70.19,713.2
0.0,2024-05-10 14:32:32.575099648,1.7086046511627908,-1.7323255813953489,-0.1,-97.17744186046511,51.708604651162794,699.7430232558139
0.0,2024-05-10 14:32:32.584867584,1.4699999999999998,-1.75,-0.1,-51.33,-88.75,597.47
0.0,2024-05-10 14:32:32.594994944,1.47,-1.75,-0.1,-51.32999999999999,-88.75,597.4700000000001
0.0,2024-05-10 14:32:32.605726208,1.47,-1.75,-0.1,-51.32999999999999,-88.75,597.4700000000001
0.0,2024-05-10 14:32:32.615651584,1.821186440677966,-1.8591525423728814,-0.1,-31.462881355932204,-134.53983050847458,584.5683050847457
0.0,2024-05-10 14:32:32.625374464,2.21,-1.98,-0.1,1.95,-211.55,562.87
0.0,2024-05-10 14:32:32.635094272,2.21,-1.98,-0.1,1.95,-211.55,562.87
0.0,2024-05-10 14:32:32.645036800,2.21,-1.98,-0.1,1.9499999999999997,-211.55,562.87
0.0,2024-05-10 14:32:32.655161600,2.8160377358490565,-1.5172075471698114,0.5115471698113208,-79.89056603773585,10.346830188679228,531.624641509434
0.0,2024-05-10 14:32:32.665213952,3.31,-1.14,1.01,-180.3,282.59,493.29
0.0,2024-05-10 14:32:32.675188480,3.31,-1.14,1.01,-180.3,282.59,493.29
0.0,2024-05-10 14:32:32.685364480,3.31,-1.14,1.01,-180.3,282.59,493.29
0.0,2024-05-10 14:32:32.695294976,4.0835,-1.4722083333333333,0.3455833333333333,-121.48191666666666,100.22591666666666,438.79366666666664
0.0,2024-05-10 14:32:32.705058304,4.87,-1.81,-0.33,-60.67,-88.32,382.45
0.0,2024-05-10 14:32:32.714930176,4.87,-1.81,-0.33,-60.67000000000001,-88.32,382.45
0.0,2024-05-10 14:32:32.725270016,4.87,-1.81,-0.33,-60.67,-88.32,382.45
0.0,2024-05-10 14:32:32.734962432,4.666833333333333,-1.4566666666666666,0.9508333333333334,-130.323125,-16.96833333333333,93.549375
0.0,2024-05-10 14:32:32.744673536,4.64,-1.41,1.12,-168.52,22.16,-64.88
0.0,2024-05-10 14:32:32.754605568,4.64,-1.41,1.12,-168.52,22.16,-64.88
0.0,2024-05-10 14:32:32.764865536,4.64,-1.41,1.12,-168.52,22.16,-64.88
0.0,2024-05-10 14:32:32.774976512,3.5347222222222223,-1.3972222222222221,0.5258333333333334,-60.38805555555556,169.98611111111111,-93.18916666666667
0.0,2024-05-10 14:32:32.784561920,2.91,-1.39,0.19,0.73,253.54,-109.19
0.0,2024-05-10 14:32:32.794745088,2.91,-1.39,0.19,0.73,253.54,-109.19
0.0,2024-05-10 14:32:32.805118720,2.7481153846153847,-1.207,0.11492307692307692,0.73,253.53999999999996,-109.19
0.0,2024-05-10 14:32:32.814848768,2.22,-0.61,-0.13,25.80125,139.53750000000002,-215.6846875
0.0,2024-05-10 14:32:32.824903680,2.22,-0.61,-0.13,26.61,135.86,-219.12
0.0,2024-05-10 14:32:32.834928640,2.22,-0.61,-0.13,26.61,135.86,-219.12
0.0,2024-05-10 14:32:32.845317376,2.1566233766233767,-0.5888744588744589,-0.016450216450216458,30.686363636363637,120.53826839826841,-239.2303896103896
0.0,2024-05-10 14:32:32.855244288,1.98,-0.53,0.3,51.39,42.72,-341.37
0.0,2024-05-10 14:32:32.864673024,1.98,-0.53,0.3,51.39,42.72,-341.37
0.0,2024-05-10 14:32:32.875023872,1.98,-0.53,0.3,51.39,42.72,-341.37
0.0,2024-05-10 14:32:32.885295360,1.9894795539033456,-0.5521189591078067,0.3473977695167286,66.32791821561338,49.87204460966543,-359.6774349442379
0.0,2024-05-10 14:32:32.895011328,2.01,-0.6,0.45,124.45,77.7,-430.91
0.0,2024-05-10 14:32:32.904696064,2.01,-0.6,0.45,124.45,77.7,-430.91
0.0,2024-05-10 14:32:32.915156992,2.01,-0.6,0.45,124.45,77.7,-430.91
0.0,2024-05-10 14:32:32.925163264,2.1483720930232555,-0.783139534883721,0.37267441860465117,161.40852713178296,57.77112403100775,-469.94081395348843
0.0,2024-05-10 14:32:32.935264256,2.35,-1.05,0.26,236.63,17.21,-549.38
0.0,2024-05-10 14:32:32.944799744,2.35,-1.05,0.26,236.63,17.21,-549.38
0.0,2024-05-10 14:32:32.954759168,2.35,-1.05,0.26,236.63,17.21,-549.38
0.0,2024-05-10 14:32:32.964565248,2.374896265560166,-1.1589211618257262,0.2257676348547718,249.64141078838176,0.3054356846473037,-579.0096680497925
0.0,2024-05-10 14:32:32.974662656,2.43,-1.4,0.15,278.44,-37.11,-644.59
0.0,2024-05-10 14:32:32.984550400,2.43,-1.4,0.15,278.44,-37.11,-644.59
0.0,2024-05-10 14:32:32.994908928,2.43,-1.4,0.15,278.44,-37.11,-644.59
0.0,2024-05-10 14:32:33.004891904,2.3221400778210115,-1.6756420233463034,-0.011789883268482489,252.5847859922179,-84.93536964980545,-666.3744357976655
0.0,2024-05-10 14:32:33.015131392,2.25,-1.86,-0.12,226.93,-132.39,-687.99
0.0,2024-05-10 14:32:33.025377024,2.25,-1.86,-0.12000000000000001,226.93,-132.39,-687.99
0.0,2024-05-10 14:32:33.035236352,2.25,-1.86,-0.12,226.93,-132.39,-687.99
0.0,2024-05-10 14:32:33.044665344,2.280438247011952,-1.7306374501992032,0.1006772908366534,80.1975298804781,-140.55298804780878,-659.2539442231075
0.0,2024-05-10 14:32:33.054973696,2.29,-1.69,0.17,0.98,-144.96,-643.74
0.0,2024-05-10 14:32:33.064847872,2.29,-1.69,0.17,0.98,-144.96,-643.74
0.0,2024-05-10 14:32:33.074856960,2.29,-1.69,0.17,0.9800000000000001,-144.96,-643.74
0.0,2024-05-10 14:32:33.085170432,1.582806324110672,-1.69,0.1998814229249012,-171.72039525691702,52.15197628458498,-632.5253359683794
0.0,2024-05-10 14:32:33.094729472,1.58,-1.69,0.2,-189.82,72.81,-631.35
0.0,2024-05-10 14:32:33.104821248,1.58,-1.69,0.2,-189.82,72.81,-631.35
0.0,2024-05-10 14:32:33.114580224,1.2320502092050212,-1.701297071129707,0.06443514644351465,-189.82,72.81,-631.35
0.0,2024-05-10 14:32:33.125030144,-1.5,-1.79,-1.0,-104.09206521739131,127.81554347826086,-629.5992391304349
0.0,2024-05-10 14:32:33.135444736,-1.5,-1.79,-1.0,-103.15,128.42,-629.58
0.0,2024-05-10 14:32:33.144734720,-1.5,-1.79,-1.0,-103.15,128.42,-629.58
0.0,2024-05-10 14:32:33.154996224,-1.7617870722433462,-1.7240684410646387,-1.08532319391635,-86.71524714828898,60.643269961977175,-621.5177946768061
0.0,2024-05-10 14:32:33.165276416,-2.85,-1.45,-1.44,93.32,-681.8199999999999,-533.2
0.0,2024-05-10 14:32:33.175011584,-2.85,-1.45,-1.44,93.32,-681.82,-533.2
0.0,2024-05-10 14:32:33.184999168,-2.85,-1.45,-1.44,93.32,-681.82,-533.2
0.0,2024-05-10 14:32:33.195003904,-2.2298913043478263,-1.5336956521739131,0.2491304347826087,86.4840579710145,-640.5794202898551,-446.7814492753623
0.0,2024-05-10 14:32:33.205480448,-1.22,-1.67,3.0,63.839999999999996,-503.96999999999997,-160.52
0.0,2024-05-10 14:32:33.215199744,-1.22,-1.67,3.0,63.84,-503.97,-160.52
0.0,2024-05-10 14:32:33.225167616,-1.22,-1.67,3.0,63.84,-503.97,-160.52
0.0,2024-05-10 14:32:33.235233536,-1.0381496062992126,-1.6406692913385827,2.2608661417322833,122.34397637795277,-206.7863779527559,73.85795275590552
0.0,2024-05-10 14:32:33.245064192,-0.91,-1.62,1.74,186.65,119.87,331.48
0.0,2024-05-10 14:32:33.255211776,-0.91,-1.62,1.74,186.65,119.87,331.48
0.0,2024-05-10 14:32:33.264977664,-0.03820512820512823,-1.7478632478632479,0.8914529914529914,244.5938888888889,204.6682905982906,446.28123931623935
0.0,2024-05-10 14:32:33.274680576,0.59,-1.84,0.28,306.64,295.47,569.21
0.0,2024-05-10 14:32:33.284977664,0.59,-1.84,0.28,306.64,295.47,569.21
0.0,2024-05-10 14:32:33.294679808,0.59,-1.84,0.28,306.63999999999993,295.47,569.21
0.0,2024-05-10 14:32:33.304742144,2.0318181818181817,-1.645909090909091,-0.7528409090909091,306.3170833333333,375.6355303030303,641.9601893939393
0.0,2024-05-10 14:32:33.314692096,2.67,-1.56,-1.21,306.09,432.01,693.12
0.0,2024-05-10 14:32:33.324459264,2.67,-1.56,-1.21,306.09,432.01,693.12
0.0,2024-05-10 14:32:33.334928128,2.67,-1.56,-1.21,306.09,432.01,693.12
0.0,2024-05-10 14:32:33.344992768,1.7705703422053232,-1.6452091254752852,-0.32950570342205326,59.486349809885915,320.80216730038023,691.7438783269962
0.0,2024-05-10 14:32:33.355006464,1.72,-1.65,-0.28,-66.65,263.92,691.04
0.0,2024-05-10 14:32:33.365321216,1.72,-1.65,-0.28,-66.65,263.92,691.04
0.0,2024-05-10 14:32:33.375033856,1.72,-1.65,-0.28,-66.65,263.92,691.04
0.0,2024-05-10 14:32:33.384890624,1.87975,-1.605625,-0.04037500000000001,-46.464333333333336,259.87466666666666,721.3185
0.0,2024-05-10 14:32:33.394867456,1.9,-1.6,-0.01,-37.11,258.0,735.35
0.0,2024-05-10 14:32:33.405043456,1.9,-1.6,-0.01,-37.11,258.0,735.35
0.0,2024-05-10 14:32:33.414970880,1.8086715867158671,-1.5053505535055351,-0.09302583025830259,-33.04250922509225,249.46284132841325,723.0057195571957
0.0,2024-05-10 14:32:33.425251584,1.35,-1.03,-0.51,15.38,147.83,576.05
0.0,2024-05-10 14:32:33.434933248,1.35,-1.03,-0.51,15.38,147.83,576.05
0.0,2024-05-10 14:32:33.444888320,1.35,-1.03,-0.51,15.38,147.83,576.05
0.0,2024-05-10 14:32:33.454640384,1.2644444444444447,-1.1504115226337448,-0.4022633744855967,6.691069958847738,122.67152263374487,568.6763374485596
0.0,2024-05-10 14:32:33.465080320,1.08,-1.41,-0.17,-52.73,-49.38,518.25
0.0,2024-05-10 14:32:33.475388672,1.08,-1.41,-0.17,-52.73,-49.38,518.25
0.0,2024-05-10 14:32:33.485422080,1.08,-1.41,-0.17,-52.73,-49.38,518.25
0.0,2024-05-10 14:32:33.495096320,1.2614785992217898,-1.442996108949416,-0.021517509727626467,-33.917859922178984,-58.62972762645914,502.7082879377432
0.0,2024-05-10 14:32:33.505420800,1.52,-1.49,0.19,6.23,-78.37,469.54
0.0,2024-05-10 14:32:33.515105280,1.52,-1.49,0.19,6.2299999999999995,-78.37,469.54
0.0,2024-05-10 14:32:33.524793344,1.52,-1.49,0.19,6.23,-78.37,469.54
0.0,2024-05-10 14:32:33.535302912,3.7504247104247104,-1.5706177606177607,0.8416602316602316,-133.6269111969112,9.529691119691119,447.3664864864865
0.0,2024-05-10 14:32:33.545506816,4.84,-1.61,1.16,-278.99,100.89,424.32
0.0,2024-05-10 14:32:33.555383296,4.84,-1.61,1.16,-278.99,100.89,424.32
0.0,2024-05-10 14:32:33.565466624,4.84,-1.61,1.16,-278.99,100.89,424.32
0.0,2024-05-10 14:32:33.574948096,4.51647577092511,-1.663920704845815,0.7016740088105727,-243.4226872246696,61.90374449339207,343.19656387665196
0.0,2024-05-10 14:32:33.584772608,4.36,-1.69,0.48,-175.48,-12.57,188.23
0.0,2024-05-10 14:32:33.595136768,4.36,-1.69,0.48,-175.48,-12.57,188.23
0.0,2024-05-10 14:32:33.605502720,4.36,-1.69,0.48,-175.48,-12.57,188.23
0.0,2024-05-10 14:32:33.615496192,4.920079051383399,-0.5095256916996047,1.5053754940711461,-150.92980237154148,-31.3298418972332,-83.4310276679842
0.0,2024-05-10 14:32:33.625626624,5.01,-0.32,1.6700000000000002,-143.13,-37.29,-169.73999999999998
0.0,2024-05-10 14:32:33.634903808,5.01,-0.32,1.67,-143.13,-37.29,-169.74
0.0,2024-05-10 14:32:33.644861184,4.860576923076923,-0.3587692307692308,1.583576923076923,-143.13,-37.29,-169.74
0.0,2024-05-10 14:32:33.655404800,3.16,-0.8,0.6,-125.61340163934427,250.5132786885246,-156.30061475409838
0.0,2024-05-10 14:32:33.665001472,3.16,-0.8,0.6,-122.68,298.7099999999999,-154.05
0.0,2024-05-10 14:32:33.675188992,3.16,-0.8,0.6,-122.68,298.71,-154.05
0.0,2024-05-10 14:32:33.685310464,2.913127413127413,-0.6916602316602317,0.512972972972973,-108.84351351351351,288.5002702702702,-160.83
0.0,2024-05-10 14:32:33.695410944,1.77,-0.19,0.11,47.97,172.79,-237.67
0.0,2024-05-10 14:32:33.705462272,1.77,-0.19,0.11,47.97,172.79,-237.67
0.0,2024-05-10 14:32:33.715169280,1.77,-0.19,0.11,47.97,172.79,-237.67
0.0,2024-05-10 14:32:33.724791296,1.7990243902439025,-0.14390243902439023,0.21585365853658536,56.15780487804878,165.22048780487805,-243.07731707317072
0.0,2024-05-10 14:32:33.735125248,1.94,0.08,0.73,182.25,48.65,-326.35
0.0,2024-05-10 14:32:33.745201152,1.94,0.08,0.73,182.25,48.65,-326.35
0.0,2024-05-10 14:32:33.754900992,1.94,0.08000000000000002,0.73,182.25,48.65,-326.35
0.0,2024-05-10 14:32:33.764465664,1.8991439688715952,0.0002334630350194535,0.691089494163424,184.065953307393,57.683229571984434,-334.5131906614786
0.0,2024-05-10 14:32:33.774888448,1.73,-0.33,0.53,200.2,137.94,-407.04
0.0,2024-05-10 14:32:33.785034240,1.73,-0.33,0.53,200.2,137.94,-407.04
0.0,2024-05-10 14:32:33.794657024,1.73,-0.33,0.53,200.2,137.94,-407.04
0.0,2024-05-10 14:32:33.804550400,1.8672047244094487,-0.4805905511811024,0.43629921259842525,200.4921653543307,137.5175590551181,-407.5624015748032
0.0,2024-05-10 14:32:33.814623488,2.14,-0.78,0.25,274.41,30.64,-539.73
0.0,2024-05-10 14:32:33.825146112,2.14,-0.78,0.25,274.41,30.639999999999997,-539.73
0.0,2024-05-10 14:32:33.835502336,2.14,-0.78,0.25,274.41,30.64,-539.73
0.0,2024-05-10 14:32:33.844803328,2.032780082987552,-1.1142738589211618,0.14278008298755188,284.00734439834025,-3.399502074688798,-535.6138174273859
0.0,2024-05-10 14:32:33.854640896,1.97,-1.31,0.08,292.48,-33.45,-531.98
0.0,2024-05-10 14:32:33.864445440,1.97,-1.31,0.08,292.48,-33.45,-531.98
0.0,2024-05-10 14:32:33.874861568,1.97,-1.31,0.08,292.48,-33.45,-531.98
0.0,2024-05-10 14:32:33.884988672,2.1322314049586777,-1.3224793388429752,0.21727272727272726,269.5145454545455,-79.41181818181818,-530.1957024793388
0.0,2024-05-10 14:32:33.894924032,2.23,-1.33,0.3,210.75,-197.02,-525.63
0.0,2024-05-10 14:32:33.904805120,2.23,-1.33,0.3,210.75,-197.02,-525.63
0.0,2024-05-10 14:32:33.914894336,2.23,-1.33,0.3,210.75,-197.02,-525.63
0.0,2024-05-10 14:32:33.924934656,2.045730337078652,-1.483558052434457,0.5149812734082397,80.95,-121.62,-524.6566666666666
0.0,2024-05-10 14:32:33.935130880,1.99,-1.53,0.58,16.05,-83.92,-524.17
0.0,2024-05-10 14:32:33.944256512,1.99,-1.53,0.58,16.05,-83.92,-524.17
0.0,2024-05-10 14:32:33.954573824,1.99,-1.53,0.58,16.05,-83.92,-524.17
0.0,2024-05-10 14:32:33.965024768,0.285,-1.346666666666667,0.24083333333333332,-55.02189393939394,98.01083333333334,-520.1380303030303
0.0,2024-05-10 14:32:33.975388928,0.13,-1.33,0.21,-89.36,185.91,-518.19
0.0,2024-05-10 14:32:33.985284352,0.13,-1.33,0.21,-89.36,185.91,-518.19
0.0,2024-05-10 14:32:33.995260928,0.06450199203187251,-1.3328685258964144,0.17749003984063744,-86.54119521912351,181.72123505976094,-514.7174103585658
0.0,2024-05-10 14:32:34.005467904,-2.61,-1.45,-1.15,28.56,10.68,-372.92
0.0,2024-05-10 14:32:34.015534592,-2.61,-1.45,-1.15,28.56,10.68,-372.92
0.0,2024-05-10 14:32:34.025041920,-2.61,-1.45,-1.15,28.56,10.68,-372.92
0.0,2024-05-10 14:32:34.034702080,-2.7417045454545454,-1.3829924242424243,-1.032159090909091,48.27363636363636,-34.874545454545455,-300.7063636363637
0.0,2024-05-10 14:32:34.044737280,-3.18,-1.16,-0.64,115.3,-189.76,-55.18
0.0,2024-05-10 14:32:34.054976256,-3.18,-1.16,-0.64,115.3,-189.76,-55.18
0.0,2024-05-10 14:32:34.064944384,-3.18,-1.16,-0.6399999999999999,115.3,-189.76,-55.18
0.0,2024-05-10 14:32:34.074863360,-2.5691634980988596,-1.0202661596958174,-0.2527376425855513,92.4848288973384,-146.02844106463877,66.89125475285171
0.0,2024-05-10 14:32:34.084980480,-1.65,-0.81,0.33,46.33,-57.56,313.84
0.0,2024-05-10 14:32:34.095086080,-1.65,-0.81,0.33,46.33,-57.56,313.84
0.0,2024-05-10 14:32:34.105386496,-1.65,-0.81,0.33,46.33,-57.56,313.84
0.0,2024-05-10 14:32:34.115159040,-0.5710629921259842,-0.9470078740157482,0.2158267716535433,11.182992125984251,34.835275590551184,428.5786614173228
0.0,2024-05-10 14:32:34.125418496,0.23999999999999996,-1.05,0.13,-26.25,133.24,550.78
0.0,2024-05-10 14:32:34.131489536,0.24000000000000002,-1.05,0.13,-26.25,133.24,550.78
,,,,,,,
0.0,2024-05-10 14:32:34.156584448,1.2670700636942676,-1.5265605095541401,-0.06719745222929936,-34.869171974522295,134.29171974522293,609.7091719745223
0.0,2024-05-10 14:32:34.164702720,1.49,-1.63,-0.11,-36.74,134.52,622.5
0.0,2024-05-10 14:32:34.174620672,1.49,-1.63,-0.11,-36.74,134.52,622.5
0.0,2024-05-10 14:32:34.184761088,1.4918333333333333,-1.6264999999999998,-0.10983333333333332,-36.74,134.52,622.5
0.0,2024-05-10 14:32:34.194866176,1.6,-1.42,-0.1,-41.63957983193277,57.51138655462185,559.338025210084
0.0,2024-05-10 14:32:34.205271296,1.6,-1.42,-0.1,-42.72,40.53,545.41
0.0,2024-05-10 14:32:34.210974720,1.6,-1.42,-0.1,-42.72,40.53,545.41
