id,timestamp,acc_x,acc_y,acc_z,gyro_x,gyro_y,gyro_z
0,1715781878480,-0.11,0.88,0.08,4.33,-60.24,42.72
1,1715781878490,-0.10669603524229074,0.8899118942731277,0.07008810572687224,6.279427312775331,-41.47920704845815,42.103876651982375
2,1715781878500,-0.1,0.91,0.05,10.31,-2.69,40.83
3,1715781878510,-0.1,0.91,0.05,10.31,-2.69,40.83
4,1715781878520,-0.1,0.91,0.05,10.31,-2.69,40.83
5,1715781878530,-0.2053781512605042,0.9483193277310924,0.030840336134453784,12.9918487394958,2.9187394957983193,39.16915966386555
6,1715781878540,-0.32,0.99,0.01,18.19,13.79,35.95
7,1715781878550,-0.32,0.9899999999999999,0.01,18.19,13.79,35.95
8,1715781878560,-0.3280578512396694,0.9887603305785124,0.005041322314049587,18.19,13.79,35.95
9,1715781878570,-0.45,0.97,-0.07,23.950326530612248,36.311142857142855,69.1055918367347
10,1715781878580,-0.45,0.97,-0.07,24.17,37.17,70.37
11,1715781878590,-0.45,0.97,-0.07,24.17,37.17,70.37
12,1715781878600,-0.4771739130434782,0.9863043478260869,-0.10079710144927537,24.17,37.17,70.37
13,1715781878610,-0.6,1.06,-0.24,7.585811965811966,14.997521367521367,80.84965811965812
14,1715781878620,-0.6,1.06,-0.24000000000000002,-1.53,2.81,86.61
15,1715781878630,-0.6,1.06,-0.24,-1.53,2.81,86.61
16,1715781878640,-0.5501930501930502,1.0184942084942086,-0.20513513513513512,-2.231196911196911,-1.0744401544401543,87.5842471042471
17,1715781878650,-0.3,0.81,-0.03,-15.5,-74.58,106.02
18,1715781878660,-0.3,0.81,-0.03,-15.5,-74.58,106.02
19,1715781878670,-0.3,0.81,-0.03,-15.5,-74.58,106.02
20,1715781878680,-0.2593625498007968,0.8140637450199204,-0.03,-6.832509960159363,-49.60362549800797,122.08342629482071
21,1715781878690,-0.2,0.82,-0.03,6.04,-12.51,145.94
22,1715781878700,-0.2,0.82,-0.03,6.04,-12.51,145.94
23,1715781878710,-0.2,0.82,-0.029999999999999995,6.04,-12.51,145.94
24,1715781878720,-0.15950413223140497,0.7737190082644627,-0.0531404958677686,3.388099173553719,1.41595041322314,159.80578512396696
25,1715781878730,-0.13,0.74,-0.07,0.31,17.58,175.9
26,1715781878740,-0.13,0.74,-0.07,0.31,17.58,175.9
27,1715781878750,-0.13,0.74,-0.07,0.31,17.58,175.9
28,1715781878760,0.049325842696629214,0.664494382022472,-0.013370786516853934,10.171048689138576,24.292284644194755,191.55917602996257
29,1715781878770,0.06,0.66,-0.01,11.96,25.51,194.4
30,1715781878780,0.06,0.66,-0.01,11.96,25.51,194.4
31,1715781878790,0.060168067226890755,0.6588235294117648,-0.011008403361344538,11.96,25.51,194.4
32,1715781878800,0.08,0.52,-0.13,-14.747558139534883,-42.21244186046512,194.9036046511628
33,1715781878810,0.08,0.52,-0.13,-20.39,-56.52,195.01
34,1715781878820,0.08,0.52,-0.13,-20.39,-56.52,195.01
35,1715781878830,0.1858909090909091,0.48785454545454543,-0.08650909090909091,-16.000400000000003,-53.40480000000001,196.2596
36,1715781878840,0.64,0.35,0.1,34.48,-17.58,210.63
37,1715781878850,0.6400000000000001,0.35,0.1,34.48,-17.58,210.63
38,1715781878860,0.64,0.35,0.1,34.48,-17.58,210.63
39,1715781878870,0.5421673003802282,0.3815589353612167,-0.010456273764258553,29.758365019011407,-13.495171102661596,209.3503422053232
40,1715781878880,0.33,0.45,-0.25,11.05,2.69,204.28
41,1715781878890,0.33,0.45,-0.25,11.05,2.69,204.28
42,1715781878900,0.33,0.45,-0.25,11.05,2.69,204.28
43,1715781878910,0.3837313432835821,0.41955223880597015,-0.22402985074626866,12.853582089552239,-1.3389552238805966,203.96298507462689
44,1715781878920,0.93,0.11000000000000001,0.04000000000000001,31.19,-42.3,200.74
45,1715781878930,0.93,0.11,0.04,31.19,-42.3,200.74
46,1715781878940,0.93,0.11,0.04,31.19,-42.3,200.74
47,1715781878950,0.6771653543307087,0.2497244094488189,-0.2327952755905512,18.09287401574803,-16.131968503937006,197.48866141732285
48,1715781878960,0.55,0.32,-0.37,1.22,17.58,193.3
49,1715781878970,0.55,0.32,-0.37,1.22,17.58,193.3
50,1715781878980,0.55,0.32,-0.37,1.22,17.58,193.3
51,1715781878990,1.2271535580524346,-0.2047940074906367,-0.02295880149812734,19.442958801498126,-30.641086142322102,186.94617977528088
52,1715781879000,1.35,-0.3,0.04,26.43,-49.13,184.51
53,1715781879010,1.35,-0.3,0.04,26.43,-49.13,184.51
54,1715781879020,1.3355805243445693,-0.2850561797752809,0.03265917602996255,26.43,-49.13,184.51
55,1715781879030,0.8,0.27,-0.24,44.44275720164609,37.36119341563786,186.70448559670783
56,1715781879040,0.8,0.27,-0.24,50.48,66.35,187.44
57,1715781879050,0.8,0.27,-0.24,50.48,66.35,187.44
58,1715781879060,0.8279674796747968,0.22707317073170735,-0.22308943089430894,50.48,66.35,187.44
59,1715781879070,1.23,-0.39,0.02,16.014678571428572,60.31614285714286,203.48617857142855
60,1715781879080,1.23,-0.39,0.02,11.41,59.51,205.63
61,1715781879090,1.23,-0.39,0.02,11.41,59.51,205.63
62,1715781879100,1.10985559566787,-0.3130324909747293,-0.043826714801444046,12.948772563176895,62.217581227436824,205.15953068592057
63,1715781879110,0.59,0.02,-0.32,29.17,90.76,200.2
64,1715781879120,0.59,0.02,-0.32,29.17,90.76,200.2
65,1715781879130,0.59,0.02,-0.32,29.17,90.76,200.2
66,1715781879140,0.7450819672131147,-0.2036065573770492,-0.22262295081967212,14.1875,46.752500000000005,195.7125
67,1715781879150,1.02,-0.6,-0.05,-30.76,-85.27,182.25
68,1715781879160,1.02,-0.6,-0.05,-30.76,-85.27,182.25
69,1715781879170,1.02,-0.6,-0.05,-30.76,-85.27,182.25
70,1715781879180,1.0198455598455598,-0.5994594594594594,-0.05003861003861004,-30.76,-85.27,182.25
71,1715781879190,0.98,-0.46,-0.060000000000000005,28.99,4.7,181.82
72,1715781879200,0.98,-0.46,-0.06,28.99,4.7,181.82
73,1715781879210,0.98,-0.45999999999999996,-0.06,28.99,4.7,181.82
74,1715781879220,0.9768235294117648,-0.5267058823529411,-0.08858823529411765,20.518352941176467,12.377529411764705,190.42823529411763
75,1715781879230,0.97,-0.67,-0.15,2.32,28.87,208.92
76,1715781879240,0.9699999999999999,-0.67,-0.15,2.32,28.87,208.92
77,1715781879250,0.97,-0.67,-0.15,2.32,28.87,208.92
78,1715781879260,0.90125,-0.73015625,-0.15,4.372421875,16.77265625,201.9265625
79,1715781879270,0.89,-0.74,-0.15,6.1,6.59,196.04
80,1715781879280,0.89,-0.74,-0.15,6.1,6.59,196.04
81,1715781879290,0.89,-0.74,-0.15,6.1,6.59,196.04
82,1715781879300,0.8945882352941177,-0.7463529411764706,-0.14752941176470588,5.2275294117647055,5.637764705882352,195.368
83,1715781879310,1.02,-0.92,-0.08,-18.62,-20.39,177.0
84,1715781879320,1.02,-0.92,-0.08,-18.62,-20.39,177.0
85,1715781879330,1.02,-0.92,-0.08,-18.62,-20.39,177.0
86,1715781879340,0.8703030303030302,-0.92,-0.1922727272727273,7.029393939393938,-17.52704545454545,174.75651515151515
87,1715781879350,0.86,-0.92,-0.2,12.02,-16.97,174.32
88,1715781879360,0.86,-0.92,-0.2,12.02,-16.97,174.32
89,1715781879370,0.8297674418604651,-0.9260465116279071,-0.18790697674418602,3.4221705426356586,13.159612403100775,180.25364341085273
90,1715781879380,0.81,-0.93,-0.18,-5.31,43.76,186.28
91,1715781879390,0.81,-0.93,-0.18,-5.31,43.76,186.28
92,1715781879400,0.81,-0.93,-0.18,-5.31,43.76,186.28
93,1715781879410,0.7271673819742489,-1.095665236051502,-0.13858369098712445,-22.253776824034336,26.58961373390558,179.99630901287554
94,1715781879420,0.71,-1.13,-0.13,-41.2,7.39,172.97
95,1715781879430,0.71,-1.13,-0.13,-41.2,7.39,172.97
96,1715781879440,0.71,-1.13,-0.13,-41.2,7.390000000000001,172.97
97,1715781879450,0.7541558441558441,-1.1918181818181819,-0.08584415584415585,-28.992380952380955,-2.4457142857142853,164.81809523809525
98,1715781879460,0.76,-1.2,-0.08,-26.12,-4.76,162.9
99,1715781879470,0.76,-1.2,-0.08,-26.12,-4.76,162.9
100,1715781879480,0.76,-1.1993103448275861,-0.08086206896551724,-26.12,-4.76,162.9
101,1715781879490,0.76,-1.16,-0.13,-7.4731250000000005,-14.71625,124.340625
102,1715781879500,0.76,-1.16,-0.13,-6.23,-15.38,121.77
103,1715781879510,0.76,-1.1600000000000001,-0.13,-6.23,-15.38,121.77
104,1715781879520,0.76,-1.1363309352517985,-0.12661870503597122,-9.243525179856116,-8.841726618705035,116.22971223021582
105,1715781879530,0.76,-1.09,-0.12,-18.55,11.35,99.12
106,1715781879540,0.76,-1.09,-0.12,-18.55,11.35,99.12
107,1715781879550,0.76,-1.09,-0.12,-18.55,11.35,99.12
108,1715781879560,0.7942307692307692,-1.0976068376068377,-0.09337606837606836,-14.663589743589744,11.801153846153845,86.05423076923078
109,1715781879570,0.85,-1.11,-0.05,-5.37,12.88,54.81
110,1715781879580,0.85,-1.11,-0.05,-5.37,12.88,54.81
111,1715781879590,0.85,-1.11,-0.05,-5.37,12.88,54.81
112,1715781879600,0.7785214007782101,-1.0515175097276266,-0.08249027237354087,0.8680544747081711,13.891128404669262,30.66447470817121
113,1715781879610,0.74,-1.02,-0.1,5.92,14.71,11.11
114,1715781879620,0.74,-1.02,-0.1,5.92,14.71,11.11
115,1715781879630,0.74,-1.02,-0.1,5.92,14.71,11.11
116,1715781879640,0.6988679245283018,-1.0035471698113207,-0.12467924528301887,7.547169811320754,11.862452830188678,-3.830377358490566
117,1715781879650,0.69,-1.0,-0.13,8.12,10.86,-9.09
118,1715781879660,0.69,-1.0,-0.13,8.12,10.86,-9.09
119,1715781879670,0.69,-1.0,-0.13,8.12,10.86,-9.09
120,1715781879680,0.7477868852459016,-1.0096311475409836,-0.10110655737704918,6.7134426229508195,8.055409836065573,-31.569344262295083
121,1715781879690,0.75,-1.01,-0.1,6.47,7.57,-35.46
122,1715781879700,0.75,-1.01,-0.1,6.469999999999999,7.57,-35.46
123,1715781879710,0.75,-1.0142323651452283,-0.09858921161825727,6.47,7.57,-35.46
124,1715781879720,0.75,-1.07,-0.08,12.355204460966544,10.073122676579926,-61.876542750929374
125,1715781879730,0.75,-1.07,-0.08,12.63,10.19,-63.10999999999999
126,1715781879740,0.75,-1.07,-0.08,12.63,10.19,-63.11
127,1715781879750,0.75,-1.07,-0.08,12.63,10.19,-63.11
128,1715781879760,0.9283018867924528,-1.1124528301886794,-0.08849056603773585,11.237547169811322,17.91641509433962,-87.88547169811321
129,1715781879770,0.9599999999999999,-1.12,-0.09,10.99,19.29,-92.29
130,1715781879780,0.96,-1.12,-0.09,10.99,19.29,-92.29
131,1715781879790,0.9324074074074075,-1.1972592592592592,-0.051370370370370365,14.83,24.932666666666666,-111.19133333333333
132,1715781879800,0.91,-1.26,-0.02,21.79,35.16,-145.45
133,1715781879810,0.9099999999999999,-1.26,-0.02,21.79,35.16,-145.44999999999996
134,1715781879820,0.91,-1.26,-0.02,21.79,35.16,-145.45
135,1715781879830,0.8670037453183521,-1.2292883895131086,-0.08756554307116106,29.904157303370788,35.11033707865168,-154.63382022471907
136,1715781879840,0.84,-1.21,-0.13,43.03,35.03,-169.49
137,1715781879850,0.84,-1.21,-0.13,43.03,35.03,-169.49
138,1715781879860,0.84,-1.21,-0.13,43.03,35.03,-169.49
139,1715781879870,0.8353932584269662,-1.1823595505617976,-0.12078651685393259,34.705617977528085,23.61449438202247,-184.33752808988766
140,1715781879880,0.83,-1.15,-0.11,24.96,10.25,-201.72
141,1715781879890,0.83,-1.15,-0.11,24.96,10.25,-201.72
142,1715781879900,0.8307630522088353,-1.1492369477911646,-0.10847389558232932,24.96,10.25,-201.72
143,1715781879910,0.84,-1.14,-0.09,28.36640816326531,13.28465306122449,-201.05326530612243
144,1715781879920,0.84,-1.14,-0.09,33.39,17.76,-200.07
145,1715781879930,0.84,-1.14,-0.09,33.39,17.76,-200.07
146,1715781879940,0.8339788732394366,-1.107887323943662,-0.09602112676056337,32.69031690140845,16.121584507042257,-201.32964788732392
147,1715781879950,0.81,-0.98,-0.12,26.98,2.75,-211.61
148,1715781879960,0.81,-0.98,-0.12,26.98,2.75,-211.61
149,1715781879970,0.81,-0.98,-0.12,26.979999999999997,2.75,-211.61
150,1715781879980,0.8696078431372549,-0.98,-0.10882352941176471,26.942313725490195,4.3972549019607845,-211.0532156862745
151,1715781879990,0.97,-0.98,-0.09,26.67,16.3,-207.03
152,1715781880000,0.9699999999999999,-0.98,-0.08999999999999998,26.67,16.3,-207.03
153,1715781880010,0.97,-0.98,-0.09,26.67,16.3,-207.03
154,1715781880020,1.0055645161290323,-0.9291935483870968,-0.10524193548387097,20.503548387096775,7.701370967741935,-212.07943548387095
155,1715781880030,1.04,-0.88,-0.12,-1.65,-23.19,-230.22
156,1715781880040,1.04,-0.88,-0.11999999999999998,-1.65,-23.19,-230.22
157,1715781880050,1.04,-0.88,-0.12,-1.65,-23.19,-230.22
158,1715781880060,1.1140520446096656,-0.8244609665427509,-0.0891449814126394,2.091263940520446,-14.14650557620818,-233.73059479553902
159,1715781880070,1.16,-0.79,-0.07,10.19,5.43,-241.33
160,1715781880080,1.16,-0.79,-0.07,10.19,5.43,-241.33
161,1715781880090,1.16,-0.79,-0.07,10.19,5.43,-241.33
162,1715781880100,1.1673684210526314,-0.7163157894736841,-0.09210526315789473,-6.717631578947368,4.3725,-254.73118421052632
163,1715781880110,1.17,-0.69,-0.1,-17.15,3.72,-263.0
164,1715781880120,1.17,-0.69,-0.1,-17.15,3.72,-263.0
165,1715781880130,1.17,-0.69,-0.1,-17.15,3.72,-263.0
166,1715781880140,1.0488363636363636,-0.5688363636363637,-0.013454545454545455,-11.668800000000001,34.81756363636364,-274.86774545454546
167,1715781880150,1.03,-0.55,0.0,-9.34,48.03,-279.91
168,1715781880160,1.03,-0.55,0.0,-9.34,48.03,-279.91
169,1715781880170,1.03,-0.55,0.0,-9.34,48.03,-279.91
170,1715781880180,1.03,-0.55,0.0,-9.34,48.03,-279.91
171,1715781880190,1.03,-0.55,0.0,-9.34,48.03,-279.91
172,1715781880200,1.03,-0.55,0.0,-9.34,48.03,-279.91
173,1715781880210,1.03,-0.55,0.0,-9.34,48.03,-279.91
174,1715781880220,1.03,-0.55,0.0,-9.34,48.03,-279.91
175,1715781880230,0.9128512396694215,-0.4198347107438017,-0.052066115702479335,-9.339999999999998,48.03,-279.91
176,1715781880240,0.76,-0.25,-0.12,0.1592244897959181,50.123877551020406,-271.6880408163266
177,1715781880250,0.6423456790123457,-0.05740740740740741,-0.058888888888888886,-9.359135802469135,16.284567901234567,-271.43864197530866
178,1715781880260,0.57,0.08,-0.03,-17.4,-2.62,-273.01
179,1715781880270,0.57,0.08,-0.029999999999999995,-17.4,-2.62,-273.01
180,1715781880280,0.57,0.08,-0.03,-17.4,-2.62,-273.01
181,1715781880290,0.57,0.08,-0.03,-17.4,-2.62,-273.01
182,1715781880300,0.57,0.08,-0.029999999999999995,-17.4,-2.62,-273.01
183,1715781880310,0.57,0.08,-0.03,-17.4,-2.62,-273.01
184,1715781880320,0.39629629629629626,0.2754320987654321,0.02991769547325103,-19.901234567901234,-10.561975308641973,-240.64991769547325
185,1715781880330,0.43,0.33,0.04,-25.27,-33.69,-227.29
186,1715781880340,0.43,0.33,0.04,-25.27,-33.69,-227.29
187,1715781880350,0.42999999999999994,0.33,0.04000000000000001,-25.269999999999996,-33.69,-227.29
188,1715781880360,0.41467741935483865,0.36830645161290326,0.14725806451612902,-6.394193548387097,0.49112903225806537,-233.60657258064515
189,1715781880370,0.41,0.38,0.18,7.929999999999999,26.43,-238.4
190,1715781880380,0.41,0.38000000000000006,0.18,7.93,26.429999999999996,-238.4
191,1715781880390,0.41,0.38,0.18,7.93,26.43,-238.4
192,1715781880400,0.16775100401606424,0.5053012048192771,0.046345381526104415,22.44767068273092,50.8737751004016,-211.92048192771082
193,1715781880410,0.12,0.53,0.02,27.47,59.33,-202.76
194,1715781880420,0.12,0.53,0.02,27.47,59.33,-202.76
195,1715781880430,0.12,0.53,0.02,27.47,59.33,-202.76
196,1715781880440,0.12996240601503758,0.5499248120300751,0.07977443609022555,31.173533834586465,23.13917293233083,-210.0615037593985
197,1715781880450,0.13,0.55,0.08,31.68,18.189999999999998,-211.06
198,1715781880460,0.13,0.55,0.08,31.680000000000003,18.19,-211.06
199,1715781880470,0.12867158671586718,0.5505166051660516,0.08014760147601475,31.77771217712177,18.34040590405904,-211.11992619926198
200,1715781880480,-0.05,0.62,0.1,44.919999999999995,38.57,-219.17999999999998
201,1715781880490,-0.05,0.62,0.1,44.92,38.57,-219.18
202,1715781880500,-0.05,0.62,0.1,44.92,38.57,-219.18
203,1715781880510,-0.18097345132743362,0.6494690265486726,0.04433628318584071,49.02867256637168,50.178407079646014,-211.98044247787612
204,1715781880520,-0.45,0.71,-0.07,62.440000000000005,88.07,-188.48
205,1715781880530,-0.45,0.71,-0.07,62.440000000000005,88.07,-188.48
206,1715781880540,-0.45,0.71,-0.07,62.44,88.07,-188.48
207,1715781880550,-0.65,0.7575,-0.1525,68.46066666666667,107.83149999999999,-176.2938333333333
208,1715781880560,-1.25,0.9,-0.4,95.28,195.86,-122.01
209,1715781880570,-1.25,0.9,-0.4,95.28,195.86,-122.01
210,1715781880580,-1.25,0.9,-0.4,95.28,195.86,-122.01
211,1715781880590,-1.262734375,1.0973828125,-0.641953125,73.5580078125,200.89046875,-27.908125000000002
212,1715781880600,-1.27,1.21,-0.78,54.69,205.26,53.83
213,1715781880610,-1.27,1.21,-0.78,54.69,205.26,53.83
214,1715781880620,-1.27,1.21,-0.78,54.69,205.26,53.83
215,1715781880630,-0.6232806324110672,1.0263636363636364,-0.3807905138339921,-27.241304347826087,6.176798418972325,36.42584980237154
216,1715781880640,-0.46,0.98,-0.28,-66.53,-89.29,28.08
217,1715781880650,-0.46,0.98,-0.28,-66.53,-89.29,28.08
218,1715781880660,-0.46,0.98,-0.28,-66.53,-89.29,28.08
219,1715781880670,0.0788663967611336,0.8624291497975709,0.11190283400809717,-40.29323886639676,-91.7482995951417,28.89198380566802
220,1715781880680,0.09,0.86,0.11999999999999998,-31.31,-92.59,29.17
221,1715781880690,0.09,0.86,0.12,-31.31,-92.59,29.17
222,1715781880700,0.04358649789029535,0.8937552742616034,0.09046413502109704,-31.31,-92.59,29.169999999999998
223,1715781880710,-0.13,1.02,-0.02,-20.181489361702127,-37.20957446808511,31.064468085106384
224,1715781880720,-0.13,1.02,-0.02,-12.63,0.37,32.35
225,1715781880730,-0.13,1.02,-0.02,-12.63,0.37,32.35
226,1715781880740,-0.20443037974683545,1.02,-0.07316455696202531,-13.640126582278482,1.6967510548523206,35.02476793248945
227,1715781880750,-0.34,1.02,-0.17,-21.18,11.6,54.99
228,1715781880760,-0.34,1.02,-0.17,-21.18,11.6,54.99
229,1715781880770,-0.34,1.02,-0.17,-21.18,11.6,54.99
230,1715781880780,-0.3442023346303502,1.0031906614785993,-0.18260700389105058,-15.869299610894942,4.807976653696499,59.471789883268485
231,1715781880790,-0.35,0.98,-0.2,-4.33,-9.95,69.21
232,1715781880800,-0.35,0.98,-0.2,-4.33,-9.95,69.21
233,1715781880810,-0.35,0.98,-0.2,-4.33,-9.95,69.21
234,1715781880820,-0.2694488188976378,0.9580314960629921,-0.17803149606299215,-7.428622047244094,-17.436771653543307,89.99893700787402
235,1715781880830,-0.24,0.95,-0.17,-9.28,-21.91,102.42
236,1715781880840,-0.24,0.95,-0.17,-9.28,-21.91,102.42
237,1715781880850,-0.24,0.95,-0.17,-9.28,-21.91,102.42
238,1715781880860,-0.19660377358490566,0.9152830188679246,-0.16132075471698112,-17.519924528301885,-12.799962264150944,111.79154716981131
239,1715781880870,-0.19,0.91,-0.16,-26.61,-2.75,122.13
240,1715781880880,-0.19,0.91,-0.16,-26.61,-2.75,122.13
241,1715781880890,-0.17392592592592593,0.8732592592592593,-0.15081481481481482,-26.591925925925924,-2.712,122.28325925925924
242,1715781880900,-0.12,0.75,-0.12,-24.17,2.38,142.82
243,1715781880910,-0.12,0.75,-0.12,-24.17,2.3799999999999994,142.81999999999996
244,1715781880920,-0.12,0.75,-0.12,-24.17,2.38,142.82
245,1715781880930,-0.09420233463035019,0.75,-0.11603112840466927,-26.09412451361868,1.7029571984435796,148.9367315175097
246,1715781880940,0.01,0.75,-0.1,-34.06,-1.1,174.26
247,1715781880950,0.01,0.75,-0.1,-34.06,-1.1,174.26
248,1715781880960,0.01,0.75,-0.1,-34.06,-1.1,174.26
249,1715781880970,0.07250922509225091,0.6562361623616236,-0.06428044280442805,-36.175867158671586,0.19033210332103317,175.69948339483395
250,1715781880980,0.15,0.54,-0.02,-40.16,2.62,178.41
251,1715781880990,0.15,0.54,-0.02,-40.16,2.62,178.41
252,1715781881000,0.15,0.54,-0.02,-40.16,2.62,178.41
253,1715781881010,0.253448275862069,0.5529310344827586,-0.00706896551724138,-37.30896551724138,4.058965517241379,185.3661206896552
254,1715781881020,0.31,0.56,0.0,-31.680000000000003,6.9,199.1
255,1715781881030,0.31,0.56,0.0,-31.680000000000003,6.9,199.1
256,1715781881040,0.31,0.56,0.0,-31.68,6.9,199.1
257,1715781881050,0.5155335968379446,0.34624505928853755,-0.04932806324110672,-68.74818181818182,-51.61778656126483,180.0575098814229
258,1715781881060,0.56,0.3,-0.06,-85.27,-77.7,171.57
259,1715781881070,0.56,0.3,-0.06,-85.27,-77.7,171.57
260,1715781881080,0.5673684210526316,0.29526315789473684,-0.04684210526315789,-85.27,-77.7,171.57
261,1715781881090,0.7,0.21,0.19,-29.845289575289573,-40.68223938223938,168.04490347490346
262,1715781881100,0.7,0.21,0.19,-20.02,-34.12,167.42
263,1715781881110,0.7,0.21,0.19,-20.02,-34.12,167.42
264,1715781881120,0.6919685039370078,0.20598425196850395,0.1137007874015748,-19.95720472440945,-29.701496062992124,173.87992125984252
265,1715781881130,0.66,0.19,-0.19,-19.47,4.58,224.0
266,1715781881140,0.66,0.19,-0.19,-19.47,4.58,224.0
267,1715781881150,0.66,0.19,-0.19,-19.47,4.58,224.0
268,1715781881160,0.760185873605948,0.1213011152416357,-0.1241635687732342,-19.078550185873606,-25.511449814126394,210.8653531598513
269,1715781881170,1.01,-0.05,0.04,-17.52,-145.32,158.57
270,1715781881180,1.01,-0.05,0.04,-17.52,-145.32,158.57
271,1715781881190,1.01,-0.05,0.04,-17.52,-145.32,158.57
272,1715781881200,1.0918181818181818,-0.07727272727272727,0.04909090909090909,4.125165289256199,-89.61739669421488,170.75247933884296
273,1715781881210,1.19,-0.11,0.06,45.59,17.09,194.09
274,1715781881220,1.19,-0.11,0.06,45.59,17.09,194.09
275,1715781881230,1.19,-0.11,0.06,45.59,17.09,194.09
276,1715781881240,0.9116309012875536,-0.037381974248927044,-0.05497854077253219,23.991244635193134,52.968755364806874,195.02463519313304
277,1715781881250,0.73,0.01,-0.13,3.3,87.34,195.92
278,1715781881260,0.73,0.01,-0.13,3.3,87.34,195.92
279,1715781881270,0.73,0.01,-0.13,3.3,87.34,195.92
280,1715781881280,0.9315748031496063,-0.20417322834645668,-0.048110236220472447,8.981102362204725,40.87732283464567,197.36212598425195
281,1715781881290,1.05,-0.33,0.0,16.3,-18.98,199.22
282,1715781881300,1.05,-0.33,0.0,16.3,-18.98,199.22
283,1715781881310,1.05,-0.32999999999999996,0.0,16.3,-18.98,199.22
284,1715781881320,0.960566037735849,-0.23162264150943399,-0.01788679245283019,14.758490566037736,17.561886792452828,180.50283018867924
285,1715781881330,0.95,-0.22,-0.02,14.4,26.06,176.15
286,1715781881340,0.95,-0.22,-0.02,14.4,26.06,176.15
287,1715781881350,0.9581176470588235,-0.22988235294117645,-0.01823529411764706,14.4,26.06,176.15
288,1715781881360,1.18,-0.5,0.03,5.473125,3.90453125,196.6801953125
289,1715781881370,1.18,-0.5,0.03,3.36,-1.34,201.54
290,1715781881380,1.18,-0.5,0.03,3.36,-1.34,201.54
291,1715781881390,1.1587022900763357,-0.48225190839694654,0.01816793893129771,3.36,-1.34,201.54
292,1715781881400,1.0,-0.35,-0.07,11.800592592592592,92.92533333333333,191.21970370370371
293,1715781881410,1.0,-0.35,-0.07,12.7,102.97,190.12
294,1715781881420,1.0,-0.35,-0.07,12.7,102.97,190.12
295,1715781881430,1.1277777777777778,-0.5142857142857142,0.025833333333333337,3.462222222222221,81.26777777777778,188.5888888888889
296,1715781881440,1.28,-0.71,0.14,-28.87,5.31,183.23
297,1715781881450,1.28,-0.71,0.14,-28.87,5.31,183.23
298,1715781881460,1.28,-0.71,0.14,-28.87,5.31,183.23
299,1715781881470,1.2749077490774907,-0.6692619926199262,0.0992619926199262,-15.578007380073801,43.100184501845014,177.8947601476015
300,1715781881480,1.27,-0.63,0.06,1.4,91.37,171.08
301,1715781881490,1.27,-0.63,0.06,1.4,91.37,171.08
302,1715781881500,1.27,-0.63,0.06,1.4,91.37,171.08
303,1715781881510,1.3241538461538462,-0.7450769230769231,0.148,-21.086423076923076,47.56884615384616,139.98896153846155
304,1715781881520,1.35,-0.8,0.19,-47.73,-4.33,103.15
305,1715781881530,1.35,-0.8,0.19,-47.73,-4.33,103.15
306,1715781881540,1.3500000000000003,-0.8000000000000002,0.19,-47.73,-4.33,103.15000000000002
307,1715781881550,1.35,-0.8,0.19,-47.73,-4.33,103.15
308,1715781881560,1.3449618320610688,-0.8033587786259543,0.1967175572519084,-41.87732824427481,2.464809160305344,99.1832824427481
309,1715781881570,1.32,-0.82,0.23,-12.88,36.13,79.53
310,1715781881580,1.2672623574144488,-0.7811406844106463,0.1911406844106464,-12.822243346007605,25.99836501901141,72.20608365019012
311,1715781881590,1.13,-0.68,0.09,-12.57,-18.25,40.22
312,1715781881600,1.13,-0.68,0.09,-12.57,-18.25,40.22
313,1715781881610,1.13,-0.68,0.09,-12.57,-18.25,40.22
314,1715781881620,1.13,-0.68,0.08999999999999998,-12.57,-18.25,40.22
315,1715781881630,1.1617557251908397,-0.7117557251908396,0.13763358778625953,-6.369694656488549,-19.07564885496183,19.5787786259542
316,1715781881640,1.17,-0.72,0.15,-4.76,-19.29,14.22
317,1715781881650,1.17,-0.72,0.15,-4.76,-19.29,14.22
318,1715781881660,1.1403999999999999,-0.7052,0.12632,-1.79704,-19.01768,11.20376
319,1715781881670,1.07,-0.6699999999999999,0.07,5.25,-18.37,4.03
320,1715781881680,1.07,-0.67,0.07,5.25,-18.37,4.03
321,1715781881690,1.055724907063197,-0.6604832713754647,0.07,6.345315985130112,-13.762118959107807,-1.3002230483271373
322,1715781881700,1.04,-0.65,0.07,7.57,-8.61,-7.26
323,1715781881710,1.04,-0.65,0.07,7.57,-8.61,-7.26
324,1715781881720,1.0318297872340427,-0.6510212765957447,0.06795744680851064,7.03268085106383,-8.949617021276595,-8.412936170212765
325,1715781881730,0.96,-0.66,0.05,2.08,-12.08,-19.04
326,1715781881740,0.96,-0.66,0.05,2.08,-12.08,-19.04
327,1715781881750,0.96,-0.66,0.05,2.08,-12.08,-19.04
328,1715781881760,0.9644528301886792,-0.66,0.05,2.7456603773584907,-7.104188679245284,-21.129698113207546
329,1715781881770,0.97,-0.66,0.05,4.88,8.85,-27.83
330,1715781881780,0.97,-0.66,0.05,4.88,8.85,-27.83
331,1715781881790,0.9699999999999999,-0.66,0.05,4.88,8.85,-27.83
332,1715781881800,0.9613157894736841,-0.66,0.045657894736842106,3.1222368421052633,4.530833333333333,-30.21530701754386
333,1715781881810,0.95,-0.66,0.04,-0.61,-4.64,-35.28
334,1715781881820,0.95,-0.66,0.04,-0.61,-4.64,-35.28
335,1715781881830,0.95,-0.66,0.04,-0.61,-4.64,-35.28
336,1715781881840,1.0620703125,-0.6717968750000001,0.0458984375,1.343984375,-7.1009375,-44.16890625
337,1715781881850,1.14,-0.68,0.05,3.36,-9.64,-53.34
338,1715781881860,1.1400000000000001,-0.6799999999999999,0.05,3.36,-9.640000000000002,-53.34
339,1715781881870,1.14,-0.68,0.05,3.36,-9.64,-53.34
340,1715781881880,1.2460944206008582,-0.7153648068669528,0.0765236051502146,4.354334763948498,7.333605150214592,-66.47609442060086
341,1715781881890,1.26,-0.72,0.08,4.64,12.21,-70.25
342,1715781881900,1.26,-0.72,0.08,4.64,12.21,-70.25
343,1715781881910,1.26,-0.7199999999999999,0.08,4.64,12.21,-70.25
344,1715781881920,1.2696226415094338,-0.6911320754716981,0.03188679245283019,8.010188679245282,0.4489056603773587,-97.88554716981133
345,1715781881930,1.27,-0.69,0.030000000000000002,8.54,-1.3999999999999997,-102.23
346,1715781881940,1.27,-0.69,0.03,8.54,-1.4,-102.23
347,1715781881950,1.275496183206107,-0.6886259541984733,0.03412213740458015,8.54,-1.4,-102.23
348,1715781881960,1.31,-0.68,0.06,5.607984790874524,-7.458060836501901,-124.24885931558936
349,1715781881970,1.31,-0.68,0.06,4.46,-9.83,-132.87
350,1715781881980,1.31,-0.68,0.06,4.46,-9.83,-132.87
351,1715781881990,1.3066535433070865,-0.663267716535433,0.056653543307086614,4.902913385826771,-9.601653543307087,-137.88181102362205
352,1715781882000,1.3,-0.63,0.05,6.71,-8.67,-158.33
353,1715781882010,1.3,-0.63,0.05,6.71,-8.67,-158.33
354,1715781882020,1.3,-0.63,0.05,6.71,-8.67,-158.33
355,1715781882030,1.2903111111111112,-0.5864,0.02577777777777778,5.654977777777777,-4.1437333333333335,-167.1980888888889
356,1715781882040,1.28,-0.54,0.0,3.85,3.6,-182.37
357,1715781882050,1.28,-0.54,0.0,3.85,3.6,-182.37
358,1715781882060,1.28,-0.54,0.0,3.85,3.6,-182.37
359,1715781882070,1.2522222222222221,-0.54,0.016666666666666666,0.8371428571428572,-6.062857142857143,-189.87952380952382
360,1715781882080,1.23,-0.54,0.03,-2.81,-17.76,-198.97
361,1715781882090,1.23,-0.54,0.03,-2.81,-17.76,-198.97
362,1715781882100,1.23,-0.54,0.03,-2.81,-17.76,-198.97000000000003
363,1715781882110,1.1129752066115703,-0.4156611570247934,-0.07239669421487603,-2.3364049586776856,-0.6976033057851251,-213.58657024793388
364,1715781882120,1.07,-0.37,-0.11,-2.08,8.54,-221.5
365,1715781882130,1.07,-0.37,-0.11,-2.08,8.54,-221.5
366,1715781882140,1.07,-0.37,-0.11,-2.08,8.54,-221.5
367,1715781882150,1.0986567164179104,-0.32223880597014926,0.014179104477611941,-20.754776119402983,-15.707649253731345,-223.45615671641792
368,1715781882160,1.1,-0.32,0.02,-23.56,-19.35,-223.75
369,1715781882170,1.1,-0.32,0.02,-23.56,-19.35,-223.75
370,1715781882180,1.0760956175298806,-0.2984860557768924,0.017609561752988046,-23.56,-19.35,-223.75
371,1715781882190,0.9,-0.14,0.0,-13.345842696629214,35.37044943820224,-226.09329588014984
372,1715781882200,0.9,-0.14,0.0,-11.05,47.67,-226.62
373,1715781882210,0.9,-0.14,0.0,-11.05,47.67,-226.62
374,1715781882220,0.8591320754716981,-0.11849056603773586,0.0,-10.792188679245283,45.174301886792456,-225.59509433962262
375,1715781882230,0.71,-0.04,0.0,-8.61,24.05,-216.91999999999996
376,1715781882240,0.71,-0.04,0.0,-8.61,24.05,-216.92
377,1715781882250,0.71,-0.04,0.0,-8.61,24.05,-216.92
378,1715781882260,0.71,-0.024223107569721115,0.00701195219123506,-8.61,24.05,-216.92
379,1715781882270,0.71,0.14,0.08,-6.883687943262411,14.40145390070922,-213.52719858156027
380,1715781882280,0.71,0.14,0.08,-6.59,12.76,-212.95
381,1715781882290,0.71,0.14,0.08,-6.59,12.76,-212.95
382,1715781882300,0.648888888888889,0.18074074074074076,0.07185185185185186,0.6692592592592593,22.06395061728395,-205.1704938271605
383,1715781882310,0.56,0.24,0.06,11.41,35.83,-193.66
384,1715781882320,0.56,0.24,0.06,11.41,35.83,-193.66
385,1715781882330,0.56,0.24,0.06,11.41,35.83,-193.66
386,1715781882340,0.5301149425287357,0.2947892720306513,0.0699616858237548,9.342950191570882,19.657203065134098,-189.43624521072798
387,1715781882350,,,,,,
388,1715781882360,0.5,0.35,0.08,7.260000000000001,3.3600000000000003,-185.18
389,1715781882370,0.5,0.35,0.08,7.26,3.36,-185.18
390,1715781882380,0.46759493670886076,0.4472151898734177,0.09620253164556962,15.750632911392405,5.512067510548523,-181.54708860759496
391,1715781882390,0.46,0.47,0.1,19.53,6.47,-179.93
392,1715781882400,0.46,0.47,0.1,19.53,6.47,-179.93
393,1715781882410,0.45548872180451133,0.4745112781954887,0.0981203007518797,19.53,6.47,-179.93
394,1715781882420,0.34,0.59,0.05,21.309137254901962,15.349058823529411,-159.83572549019607
395,1715781882430,0.34,0.59,0.05,21.67,17.15,-155.76
396,1715781882440,0.34,0.59,0.05,21.67,17.15,-155.76
397,1715781882450,0.3426953125,0.5926953125,0.048203125,21.648554687500003,15.85625,-155.6872265625
398,1715781882460,0.37,0.62,0.03,21.06,-19.65,-153.69
399,1715781882470,0.37,0.62,0.03,21.06,-19.65,-153.69
400,1715781882480,0.37,0.62,0.03,21.06,-19.65,-153.69
401,1715781882490,0.3149392712550607,0.6406477732793523,0.04032388663967611,22.951821862348176,-12.801497975708502,-150.47550607287448
402,1715781882500,0.21,0.68,0.06,28.14,5.98,-141.66
403,1715781882510,0.21,0.68,0.05999999999999999,28.14,5.98,-141.66
404,1715781882520,0.21,0.68,0.06,28.14,5.98,-141.66
405,1715781882530,0.16757575757575757,0.7012121212121212,0.04181818181818182,29.054053030303027,8.449507575757575,-132.8614015151515
406,1715781882540,0.07,0.75,0.0,32.23,17.03,-102.29
407,1715781882550,0.07,0.75,0.0,32.23,17.03,-102.29
408,1715781882560,0.07,0.75,0.0,32.23,17.03,-102.29
409,1715781882570,0.13013100436681224,0.7900873362445415,0.020043668122270743,32.85318777292576,13.622620087336246,-100.5692576419214
410,1715781882580,0.16000000000000003,0.81,0.03,34.24,6.04,-96.73999999999998
411,1715781882590,0.16,0.81,0.03,34.24,6.04,-96.74
412,1715781882600,0.16,0.81,0.03,34.24,6.04,-96.74
413,1715781882610,0.038436213991769545,0.8881481481481481,-0.06551440329218107,31.37777777777778,22.819588477366256,-111.52814814814815
414,1715781882620,0.02,0.9,-0.08,30.460000000000004,28.2,-116.27
415,1715781882630,0.02,0.9,-0.08,30.46,28.2,-116.27
416,1715781882640,0.02,0.9,-0.08,30.46,28.2,-116.27
417,1715781882650,-0.19,1.01,-0.2,36.7931914893617,42.680851063829785,-106.36893617021276
418,1715781882660,-0.19,1.01,-0.2,37.72,44.8,-104.92
419,1715781882670,-0.19,1.01,-0.2,37.72,44.8,-104.92
420,1715781882680,-0.19,1.01,-0.2,37.72,44.8,-104.92
421,1715781882690,-0.4205447470817121,1.1944357976653694,-0.19077821011673152,24.210077821011673,98.6091439688716,-85.49891050583658
422,1715781882700,-0.44,1.21,-0.19,23.07,103.15,-83.86
423,1715781882710,-0.44,1.21,-0.19,23.07,103.15,-83.86
424,1715781882720,-0.5293023255813953,1.168139534883721,-0.24023255813953487,18.937751937984498,106.57449612403101,-71.38992248062014
425,1715781882730,-0.76,1.06,-0.37,-1.16,123.23,-10.74
426,1715781882740,-0.76,1.06,-0.37,-1.16,123.23,-10.74
427,1715781882750,-0.76,1.06,-0.37,-1.16,123.23,-10.74
428,1715781882760,-0.6011336032388663,1.055587044534413,-0.28174089068825914,-5.87497975708502,85.0219028340081,-3.1780566801619434
429,1715781882770,-0.4,1.05,-0.17,-20.57,-34.06,20.39
430,1715781882780,-0.4,1.05,-0.17,-20.57,-34.06,20.39
431,1715781882790,-0.4,1.05,-0.17,-20.57,-34.06,20.39
432,1715781882800,-0.23644444444444446,1.0295555555555556,-0.10355555555555555,-18.56377777777778,-33.30766666666666,30.90211111111111
433,1715781882810,-0.08,1.01,-0.04,-15.69,-32.23,45.96
434,1715781882820,-0.08,1.01,-0.04,-15.690000000000001,-32.23,45.96
435,1715781882830,-0.08,1.01,-0.04,-15.69,-32.23,45.96
436,1715781882840,-0.04260330578512397,1.0324380165289255,-0.01756198347107438,-8.86190082644628,-28.75570247933884,42.52586776859504
437,1715781882850,-0.03,1.04,-0.01,-5.49,-27.04,40.83
438,1715781882860,-0.03,1.04,-0.01,-5.49,-27.04,40.83
439,1715781882870,-0.03,1.04,-0.01,-5.49,-27.04,40.83
440,1715781882880,-0.11099206349206349,1.0524603174603175,-0.03492063492063492,0.4784920634920633,-0.23162698412698365,44.599246031746034
441,1715781882890,-0.16,1.06,-0.05,4.09,15.989999999999998,46.88
442,1715781882900,-0.16,1.06,-0.05,4.09,15.99,46.88
443,1715781882910,-0.16032258064516128,1.0580645161290323,-0.05322580645161291,4.09,15.99,46.88
444,1715781882920,-0.17,1.0,-0.15,2.8360902255639098,8.040375939849625,68.98323308270676
445,1715781882930,-0.17,1.0,-0.15,2.56,6.29,73.85
446,1715781882940,-0.17,1.0,-0.15,2.5600000000000005,6.290000000000001,73.85
447,1715781882950,-0.15369565217391304,0.9981884057971014,-0.15543478260869564,2.56,6.29,73.85
448,1715781882960,-0.08,0.99,-0.18,-8.724725738396623,-25.288481012658227,83.6857805907173
449,1715781882970,-0.08,0.99,-0.18,-10.68,-30.760000000000005,85.39
450,1715781882980,-0.08,0.99,-0.18,-10.68,-30.76,85.39
451,1715781882990,-0.056315789473684215,0.9592105263157895,-0.1681578947368421,-12.485714285714286,-32.53,86.68857142857142
452,1715781883000,0.02,0.86,-0.13,-23.32,-43.15,94.48
453,1715781883010,0.02,0.86,-0.13,-23.32,-43.15,94.48
454,1715781883020,0.02,0.86,-0.13,-23.32,-43.15,94.48
455,1715781883030,0.006612244897959184,0.843265306122449,-0.1333469387755102,-29.329673469387753,-56.21224489795918,96.69069387755103
456,1715781883040,-0.02,0.81,-0.14,-52.19,-105.9,105.1
457,1715781883050,-0.02,0.81,-0.14,-52.19,-105.9,105.1
458,1715781883060,-0.02,0.81,-0.14,-52.19,-105.9,105.1
459,1715781883070,0.16228,0.7276800000000001,-0.040040000000000006,-36.0764,-84.6264,127.63119999999999
460,1715781883080,0.29,0.67,0.03,-18.62,-61.580000000000005,152.04
461,1715781883090,0.29,0.67,0.03,-18.62,-61.58,152.04
462,1715781883100,0.29,0.67,0.03,-18.62,-61.58,152.04
463,1715781883110,0.31866141732283465,0.5768503937007874,0.03716535433070866,-12.741653543307088,-32.51566929133858,146.19637795275588
464,1715781883120,0.33,0.54,0.04,-6.77,-2.99,140.26
465,1715781883130,0.33,0.54,0.04,-6.77,-2.99,140.26
466,1715781883140,0.33,0.54,0.04,-6.77,-2.99,140.26
467,1715781883150,0.4225609756097561,0.5484146341463414,0.014756097560975609,13.791463414634148,28.700243902439027,174.9481707317073
468,1715781883160,0.44,0.55,0.01,20.87,39.61,186.89
469,1715781883170,0.44,0.55,0.01,20.87,39.61,186.89
470,1715781883180,0.44,0.55,0.01,20.87,39.61,186.89
471,1715781883190,0.5091923076923077,0.35230769230769227,-0.019653846153846154,6.953846153846154,-4.842423076923077,176.46169230769232
472,1715781883200,0.51,0.35,-0.02,5.07,-10.86,175.05
473,1715781883210,0.51,0.35,-0.02,5.07,-10.86,175.05
474,1715781883220,0.5751449275362319,0.3352898550724637,-0.030507246376811594,5.97,-12.859166666666667,175.85833333333335
475,1715781883230,0.82,0.28,-0.07,15.87,-34.85,184.75
476,1715781883240,0.82,0.28,-0.07,15.87,-34.85,184.75
477,1715781883250,0.82,0.28,-0.07,15.87,-34.85,184.75
478,1715781883260,0.8399596774193548,0.23342741935483874,-0.05891129032258065,14.962943548387097,-36.69072580645162,176.9413306451613
479,1715781883270,0.91,0.07,-0.02,11.78,-43.15,149.54
480,1715781883280,0.91,0.07,-0.02,11.78,-43.15,149.54
481,1715781883290,0.91,0.07,-0.02,11.78,-43.15,149.54
482,1715781883300,0.951890909090909,0.09792727272727274,-0.03396363636363636,20.920654545454546,9.871090909090908,165.71861818181816
483,1715781883310,1.0,0.13,-0.05,35.95,97.05,192.32
484,1715781883320,1.0,0.13,-0.05,35.95,97.05,192.32
485,1715781883330,1.0,0.13,-0.05,35.95,97.05,192.32
486,1715781883340,0.8607964601769911,0.028761061946902658,-0.1702212389380531,20.53265486725664,53.027433628318576,182.37106194690267
487,1715781883350,0.78,-0.03,-0.24,7.39,15.5,173.89
488,1715781883360,0.78,-0.03,-0.24,7.39,15.5,173.89
489,1715781883370,0.78,-0.03,-0.24,7.39,15.5,173.89
490,1715781883380,1.1844094488188976,-0.15637795275590552,-0.05464566929133858,12.860787401574804,-0.632755905511811,167.67535433070867
491,1715781883390,1.26,-0.18,-0.02,17.76,-15.08,162.11
492,1715781883400,1.26,-0.18,-0.02,17.76,-15.08,162.11
493,1715781883410,1.26,-0.18,-0.02,17.76,-15.08,162.11
494,1715781883420,0.9942352941176471,-0.012666666666666666,-0.08890196078431371,25.446941176470588,63.442235294117644,163.6578823529412
495,1715781883430,0.9899999999999999,-0.01,-0.09,26.55,74.71,163.88
496,1715781883440,0.99,-0.01,-0.09,26.55,74.71,163.88
497,1715781883450,0.99,-0.027180616740088107,-0.08801762114537445,22.932158590308372,71.90295154185021,163.33154185022028
498,1715781883460,0.9900000000000001,-0.27,-0.060000000000000005,-28.2,32.23,155.58
499,1715781883470,0.9899999999999999,-0.27,-0.06,-28.2,32.23,155.58
500,1715781883480,0.9899999999999999,-0.27,-0.06,-28.2,32.23,155.58
501,1715781883490,0.9943511450381679,-0.27,-0.04694656488549618,-21.676641221374044,24.97564885496183,155.03282442748093
502,1715781883500,1.01,-0.27,0.0,2.32,-1.71,153.02
503,1715781883510,1.01,-0.27,0.0,2.32,-1.71,153.02
504,1715781883520,1.01,-0.27,0.0,2.32,-1.71,153.02
505,1715781883530,1.0109829059829059,-0.2857264957264957,-0.003931623931623932,-0.9619230769230771,-0.7143162393162393,152.48529914529917
506,1715781883540,1.02,-0.43,-0.04,-31.07,8.42,147.58
507,1715781883550,1.02,-0.43,-0.04,-31.07,8.42,147.58
508,1715781883560,1.02,-0.43,-0.04,-31.07,8.42,147.58
509,1715781883570,1.09816091954023,-0.5081609195402299,0.012107279693486591,-15.38383141762452,-5.655363984674329,147.94708812260538
510,1715781883580,1.14,-0.55,0.04,-2.44,-17.27,148.25
511,1715781883590,1.14,-0.55,0.04,-2.44,-17.27,148.25
512,1715781883600,1.14,-0.55,0.04,-2.44,-17.27,148.25
513,1715781883610,1.1155609756097562,-0.5092682926829268,-0.05775609756097561,-10.599804878048781,15.071365853658538,137.17399999999998
514,1715781883620,1.11,-0.5,-0.08,-14.22,29.42,132.26
515,1715781883630,1.11,-0.5,-0.08,-14.22,29.42,132.26
516,1715781883640,1.1270454545454547,-0.5204545454545455,-0.06977272727272728,-14.22,29.42,132.26
517,1715781883650,1.26,-0.68,0.01,-19.49020746887967,-21.92232365145228,108.11269709543568
518,1715781883660,1.26,-0.68,0.01,-19.84,-25.33,106.51
519,1715781883670,1.26,-0.68,0.01,-19.84,-25.33,106.51
520,1715781883680,1.2509876543209877,-0.6649794238683128,0.0069958847736625515,-16.06057613168724,-17.833580246913577,103.39872427983539
521,1715781883690,1.23,-0.63,0.0,2.56,19.1,88.07
522,1715781883700,1.23,-0.63,0.0,2.56,19.1,88.07
523,1715781883710,1.23,-0.63,0.0,2.56,19.1,88.07
524,1715781883720,1.2459683794466403,-0.6140316205533597,0.0,3.434545454545454,29.205533596837945,83.0888932806324
525,1715781883730,1.27,-0.59,0.0,5.55,53.65,71.04
526,1715781883740,1.27,-0.59,0.0,5.55,53.65,71.04
527,1715781883750,1.27,-0.59,0.0,5.55,53.65,71.04
528,1715781883760,1.170546875,-0.616171875,-0.01046875,-3.7302734374999997,48.13828125,64.5155859375
529,1715781883770,1.08,-0.64,-0.02,-22.4,37.05,51.39
530,1715781883780,1.08,-0.64,-0.02,-22.4,37.05,51.39
531,1715781883790,1.08,-0.64,-0.02,-22.4,37.05,51.39
532,1715781883800,1.1243493150684931,-0.6653424657534247,0.05602739726027397,-13.365890410958903,24.986712328767123,34.17657534246575
533,1715781883810,1.15,-0.68,0.1,-5.49,14.47,19.17
534,1715781883820,1.15,-0.68,0.1,-5.49,14.47,19.17
535,1715781883830,1.15,-0.68,0.1,-5.49,14.47,19.17
536,1715781883840,0.9748648648648648,-0.6132818532818533,0.016602316602316602,-5.808764478764479,13.743513513513514,13.23949806949807
537,1715781883850,0.94,-0.6,0.0,-5.92,13.49,11.17
538,1715781883860,0.94,-0.6,0.0,-5.92,13.49,11.17
539,1715781883870,0.94,-0.6,0.0,-5.92,13.49,11.17
540,1715781883880,1.00832,-0.65856,0.058559999999999994,-5.25008,-13.42552,-5.654319999999999
541,1715781883890,1.01,-0.66,0.06,-5.129999999999999,-18.25,-8.67
542,1715781883900,1.01,-0.66,0.06,-5.130000000000001,-18.25,-8.67
543,1715781883910,1.001828793774319,-0.6588326848249028,0.05533073929961089,-5.13,-18.25,-8.67
544,1715781883920,0.94,-0.65,0.02,-0.36415730337078656,2.326179775280899,-10.904606741573033
545,1715781883930,0.94,-0.65,0.02,-0.31,2.56,-10.93
546,1715781883940,0.94,-0.65,0.02,-0.31,2.56,-10.93
547,1715781883950,0.9433043478260869,-0.6400869565217391,0.01008695652173913,0.7254782608695651,1.126608695652174,-13.398869565217392
548,1715781883960,0.95,-0.62,-0.01,4.27,-3.78,-21.85
549,1715781883970,0.95,-0.62,-0.01,4.27,-3.78,-21.85
550,1715781883980,0.9499999999999998,-0.62,-0.01,4.27,-3.7800000000000002,-21.85
551,1715781883990,0.9809128630705395,-0.6385477178423237,-0.0038174273858921164,0.8990456431535268,-0.19493775933609953,-26.286514522821577
552,1715781884000,1.0,-0.65,0.0,-2.5,3.42,-30.76
553,1715781884010,1.0,-0.65,0.0,-2.5,3.42,-30.76
554,1715781884020,1.0,-0.65,0.0,-2.5,3.42,-30.76
555,1715781884030,1.0214285714285716,-0.65,0.0,2.5665800865800867,9.292900432900431,-37.631774891774896
556,1715781884040,1.03,-0.65,0.0,5.92,13.18,-42.18
557,1715781884050,1.03,-0.65,0.0,5.92,13.18,-42.18
558,1715781884060,1.03,-0.65,0.0,5.92,13.18,-42.17999999999999
559,1715781884070,1.078679245283019,-0.6581132075471698,0.01622641509433962,3.4117735849056605,11.024943396226414,-57.705056603773585
560,1715781884080,1.09,-0.66,0.02,2.44,10.19,-63.72
561,1715781884090,1.09,-0.66,0.02,2.44,10.19,-63.72
562,1715781884100,1.09,-0.66,0.02,2.44,10.19,-63.71999999999999
563,1715781884110,1.17793893129771,-0.6013740458015268,0.02,6.80030534351145,15.536564885496183,-71.96045801526718
564,1715781884120,1.18,-0.6,0.02,9.16,18.43,-76.42
565,1715781884130,1.18,-0.6,0.02,9.16,18.43,-76.42
566,1715781884140,1.156106557377049,-0.5869672131147541,0.02,8.716680327868852,16.5877868852459,-78.9444262295082
567,1715781884150,1.07,-0.54,0.02,5.43,2.93,-97.66
568,1715781884160,1.07,-0.54,0.02,5.43,2.93,-97.66
569,1715781884170,1.07,-0.54,0.02,5.43,2.93,-97.66
570,1715781884180,1.0821367521367522,-0.5217948717948718,0.02303418803418803,6.35,3.042820512820513,-97.64051282051282
571,1715781884190,1.11,-0.48,0.03,14.4,4.03,-97.47
572,1715781884200,1.11,-0.48,0.03,14.4,4.03,-97.47
573,1715781884210,1.11,-0.48,0.03,14.4,4.03,-97.47
574,1715781884220,1.0898507462686569,-0.46992537313432836,0.014888059701492536,11.559402985074627,-5.256268656716418,-104.0320895522388
575,1715781884230,1.07,-0.46,0.0,7.08,-19.9,-114.38
576,1715781884240,1.07,-0.46,0.0,7.08,-19.9,-114.38
577,1715781884250,1.07,-0.46,0.0,7.08,-19.9,-114.38
578,1715781884260,1.1664285714285714,-0.4407142857142857,0.019285714285714285,12.611746031746032,-11.135555555555555,-115.89650793650793
579,1715781884270,1.22,-0.43,0.030000000000000002,17.33,-3.66,-117.19
580,1715781884280,1.22,-0.43,0.03,17.33,-3.66,-117.19000000000001
581,1715781884290,1.22,-0.43,0.029999999999999995,17.33,-3.66,-117.19
582,1715781884300,1.171891891891892,-0.3887644787644788,0.009382239382239381,13.588648648648647,-9.916833976833978,-128.02177606177605
583,1715781884310,1.15,-0.37,0.0,9.7,-16.42,-139.28
584,1715781884320,1.15,-0.37,0.0,9.7,-16.42,-139.28
585,1715781884330,1.15,-0.37,0.0,9.7,-16.42,-139.28
586,1715781884340,1.2166265060240964,-0.3128915662650602,0.0,2.762530120481928,-3.366265060240964,-144.60927710843373
587,1715781884350,1.22,-0.31,0.0,1.59,-1.16,-145.51
588,1715781884360,1.22,-0.31,0.0,1.59,-1.16,-145.51
589,1715781884370,1.211111111111111,-0.2975555555555556,-0.0035555555555555553,1.5437777777777777,-1.3906666666666665,-146.21533333333332
590,1715781884380,1.17,-0.24,-0.02,0.55,-6.35,-161.38
591,1715781884390,1.17,-0.24,-0.02,0.55,-6.35,-161.38
592,1715781884400,1.17,-0.24,-0.02,0.55,-6.35,-161.38
593,1715781884410,1.1761363636363635,-0.2246590909090909,-0.02,0.5969318181818182,-6.021477272727272,-161.61625
594,1715781884420,1.19,-0.19,-0.02,2.32,6.04,-170.29
595,1715781884430,1.19,-0.19,-0.02,2.32,6.04,-170.29
596,1715781884440,1.19,-0.19,-0.02,2.32,6.04,-170.29
597,1715781884450,1.1115217391304348,-0.14043478260869566,-0.020000000000000004,0.323478260869565,4.414782608695652,-173.85695652173914
598,1715781884460,1.0,-0.07,-0.02,-10.8,-4.64,-193.73
599,1715781884470,1.0,-0.07,-0.02,-10.8,-4.64,-193.73
600,1715781884480,1.0,-0.07,-0.02,-10.8,-4.64,-193.73
601,1715781884490,0.949809885931559,-0.015247148288973387,-0.03368821292775666,-1.4737642585551332,6.6390874524714825,-189.16269961977187
602,1715781884500,0.89,0.05,-0.05,9.64,20.08,-183.72
603,1715781884510,0.89,0.05,-0.05,9.64,20.08,-183.72
604,1715781884520,0.89,0.05,-0.05,9.64,20.08,-183.72
605,1715781884530,0.8436153846153847,0.07061538461538461,-0.024230769230769233,-2.502461538461538,9.009538461538462,-185.7609230769231
606,1715781884540,0.8,0.09,0.0,-13.92,-1.4,-187.68
607,1715781884550,0.8,0.09,0.0,-13.92,-1.4,-187.68
608,1715781884560,0.8,0.09,0.0,-13.92,-1.4,-187.68
609,1715781884570,0.6951079136690648,0.2473381294964029,-0.05244604316546762,-4.386474820143885,9.128057553956834,-168.71395683453238
610,1715781884580,0.68,0.27,-0.06,-1.65,12.15,-163.27
611,1715781884590,0.68,0.27,-0.06,-1.65,12.15,-163.27
612,1715781884600,0.6838709677419356,0.2719354838709677,-0.05419354838709677,-1.65,12.15,-163.27
613,1715781884610,0.74,0.3,0.03,8.872941176470588,9.26308823529412,-173.8520588235294
614,1715781884620,0.74,0.3,0.03,9.03,9.22,-174.01
615,1715781884630,0.74,0.3,0.03,9.03,9.22,-174.01
616,1715781884640,0.7188432835820896,0.3161194029850746,0.023955223880597013,9.03,9.22,-174.01
617,1715781884650,0.53,0.46,-0.03,1.4119148936170214,27.218340425531917,-168.6724255319149
618,1715781884660,0.53,0.45999999999999996,-0.03,1.28,27.53,-168.58
619,1715781884670,0.53,0.46,-0.03,1.28,27.53,-168.58
620,1715781884680,0.557158671586716,0.4701845018450185,-0.023210332103321032,4.26029520295203,25.898044280442804,-164.39317343173434
621,1715781884690,0.61,0.49,-0.01,14.1,20.51,-150.57
622,1715781884700,0.61,0.49,-0.01,14.1,20.51,-150.57
623,1715781884710,0.6100000000000001,0.49,-0.009999999999999998,14.1,20.51,-150.57
624,1715781884720,0.502895752895753,0.5689189189189189,-0.03818532818532819,13.224324324324323,14.852857142857145,-159.1692277992278
625,1715781884730,0.42,0.63,-0.06,12.21,8.3,-169.13
626,1715781884740,0.42,0.63,-0.05999999999999999,12.21,8.3,-169.13
627,1715781884750,0.42,0.63,-0.06,12.21,8.3,-169.13
628,1715781884760,0.38331967213114754,0.6740163934426229,-0.02331967213114754,12.726393442622951,6.204918032786886,-162.21770491803278
629,1715781884770,0.37,0.69,-0.01,13.61,2.62,-150.39
630,1715781884780,0.37,0.69,-0.01,13.61,2.62,-150.39
631,1715781884790,0.37,0.69,-0.01,13.61,2.62,-150.39
632,1715781884800,0.2521428571428571,0.7214285714285713,-0.03357142857142857,7.312857142857142,7.967142857142857,-150.0575
633,1715781884810,0.22,0.73,-0.04,4.33,10.5,-149.9
634,1715781884820,0.22,0.73,-0.04,4.33,10.5,-149.9
635,1715781884830,0.22,0.73,-0.04,4.33,10.5,-149.9
636,1715781884840,0.14173285198555957,0.7691335740072203,-0.08891696750902527,1.8415523465703971,0.4401444043321299,-144.0745848375451
637,1715781884850,0.14,0.77,-0.09,1.28,-1.83,-142.76
638,1715781884860,0.14,0.77,-0.09,1.28,-1.83,-142.76
639,1715781884870,0.13375,0.7736764705882353,-0.08742647058823529,1.28,-1.83,-142.76
640,1715781884880,-0.03,0.87,-0.02,-6.720930232558139,0.3487596899224805,-131.95364341085272
641,1715781884890,-0.03,0.87,-0.02,-9.7,1.16,-127.93
642,1715781884900,-0.03,0.87,-0.02,-9.7,1.16,-127.93
643,1715781884910,-0.05076923076923077,0.8873076923076922,-0.013076923076923078,-9.181666666666665,-0.10166666666666675,-123.92166666666668
644,1715781884920,-0.09,0.92,0.0,-6.59,-6.41,-103.87999999999998
645,1715781884930,-0.09,0.92,0.0,-6.59,-6.41,-103.88
646,1715781884940,-0.09,0.92,0.0,-6.59,-6.41,-103.88
647,1715781884950,-0.09,0.92,0.0,-6.590000000000001,-6.409999999999999,-103.88
648,1715781884960,-0.08277566539923954,0.9272243346007605,0.028897338403041827,5.605171102661597,-2.371292775665399,-93.17958174904943
649,1715781884970,-0.08,0.93,0.04,10.38,-0.79,-88.99
650,1715781884980,-0.08,0.93,0.04,10.38,-0.79,-88.99
651,1715781884990,-0.10513409961685823,0.973984674329502,-0.010268199233716475,14.405900383141763,10.627854406130268,-78.79578544061303
652,1715781885000,-0.11999999999999998,1.0,-0.04,20.02,26.55,-64.58
653,1715781885010,-0.12,1.0,-0.04,20.02,26.55,-64.58
654,1715781885020,-0.12,1.0,-0.04,20.02,26.55,-64.58
655,1715781885030,-0.08628352490421456,0.9662835249042145,-0.04,19.521992337164754,15.341111111111111,-62.758927203065134
656,1715781885040,-0.08,0.96,-0.04,19.35,11.47,-62.13
657,1715781885050,-0.08,0.96,-0.04,19.35,11.47,-62.13
658,1715781885060,-0.08146520146520148,0.9643956043956043,-0.0421978021978022,19.35,11.47,-62.13
659,1715781885070,-0.12,1.08,-0.1,22.520563909774438,10.914624060150375,-56.63951127819549
660,1715781885080,-0.12,1.08,-0.1,23.86,10.68,-54.32
661,1715781885090,-0.12,1.08,-0.1,23.86,10.68,-54.32
662,1715781885100,-0.13229007633587786,1.0694656488549619,-0.09297709923664121,22.41038167938931,10.86148854961832,-54.84442748091603
663,1715781885110,-0.19,1.02,-0.06,-1.46,13.85,-63.48
664,1715781885120,-0.19,1.02,-0.06,-1.46,13.85,-63.48
665,1715781885130,-0.19,1.02,-0.05999999999999999,-1.46,13.85,-63.47999999999999
666,1715781885140,-0.3063953488372093,1.025968992248062,-0.06298449612403101,-1.2683720930232558,26.138372093023253,-55.42790697674418
667,1715781885150,-0.58,1.04,-0.07,-0.43,79.9,-20.2
668,1715781885160,-0.58,1.04,-0.07,-0.43,79.9,-20.2
669,1715781885170,-0.58,1.04,-0.07,-0.43,79.9,-20.2
670,1715781885180,-0.6211255411255411,1.0482251082251084,-0.07822510822510823,-2.6396103896103895,62.91082251082252,-3.5607792207792195
671,1715781885190,-0.68,1.06,-0.09,-5.86,38.15,20.69
672,1715781885200,-0.68,1.06,-0.09,-5.86,38.15,20.69
673,1715781885210,-0.68,1.06,-0.09,-5.86,38.15,20.69
674,1715781885220,-0.5372519083969465,1.0171755725190839,-0.04717557251908397,-0.4187786259541987,22.937786259541983,44.323587786259544
675,1715781885230,-0.4799999999999999,1.0,-0.029999999999999995,3.05,13.24,59.39
676,1715781885240,-0.48,1.0,-0.03,3.05,13.24,59.39
677,1715781885250,-0.48,1.0,-0.03,3.05,13.24,59.39
678,1715781885260,-0.4389694656488549,0.9917938931297711,-0.08744274809160306,5.480687022900764,12.003702290076337,79.80637404580153
679,1715781885270,-0.43,0.99,-0.1,6.53,11.47,88.62
680,1715781885280,-0.43000000000000005,0.99,-0.1,6.53,11.47,88.62
681,1715781885290,-0.42776119402985074,0.9894402985074627,-0.10055970149253732,6.53,11.47,88.62
682,1715781885300,-0.31,0.96,-0.13,-5.2294074074074075,-12.156370370370372,111.65481481481481
683,1715781885310,-0.31,0.96,-0.13,-6.59,-14.89,114.32
684,1715781885320,-0.31,0.96,-0.13,-6.59,-14.89,114.32
685,1715781885330,-0.26195729537366547,0.9279715302491103,-0.11398576512455516,-8.028291814946618,-18.060391459074733,117.11459074733095
686,1715781885340,-0.13,0.84,-0.07,-15.01,-33.45,130.68
687,1715781885350,-0.13,0.84,-0.07,-15.01,-33.45,130.68
688,1715781885360,-0.13,0.84,-0.07,-15.01,-33.45,130.68
689,1715781885370,-0.08507633587786259,0.84,-0.07,-13.331259541984732,-26.787595419847328,133.3573282442748
690,1715781885380,-0.02,0.84,-0.07,-9.58,-11.9,139.34
691,1715781885390,-0.02,0.84,-0.07,-9.58,-11.9,139.34
692,1715781885400,-0.02,0.84,-0.07,-9.58,-11.9,139.34
693,1715781885410,0.06434426229508196,0.755655737704918,-0.05192622950819672,-13.363975409836067,-14.440000000000001,147.66266393442623
694,1715781885420,0.12,0.7,-0.04,-16.85,-16.78,155.33
695,1715781885430,0.12000000000000001,0.7,-0.04,-16.85,-16.78,155.33
696,1715781885440,0.12,0.7,-0.04,-16.85,-16.78,155.33000000000004
697,1715781885450,0.20952569169960478,0.682094861660079,-0.04,-13.536956521739132,-12.156798418972333,158.9191304347826
698,1715781885460,0.27,0.67,-0.04,-10.25,-7.570000000000001,162.48
699,1715781885470,0.27,0.67,-0.04,-10.25,-7.57,162.48
700,1715781885480,0.27,0.67,-0.04,-10.25,-7.570000000000001,162.48
701,1715781885490,0.4268281938325991,0.5366960352422907,-0.01647577092511013,-5.1920264317180616,-6.363303964757709,170.18819383259913
702,1715781885500,0.47000000000000003,0.5,-0.01,-1.28,-5.43,176.15
703,1715781885510,0.47,0.5,-0.01,-1.28,-5.429999999999999,176.15
704,1715781885520,0.47000000000000003,0.5,-0.01,-1.28,-5.43,176.15
705,1715781885530,0.4511904761904762,0.5282142857142857,-0.06642857142857143,-10.738333333333333,-17.73833333333333,164.54999999999998
706,1715781885540,0.45,0.53,-0.07,-12.63,-20.2,162.23
707,1715781885550,0.45,0.53,-0.07,-12.63,-20.2,162.23
708,1715781885560,0.5032818532818533,0.4998841698841699,-0.05841698841698842,-12.423590733590734,-19.322007722007722,162.79409266409266
709,1715781885570,0.91,0.27,0.03,-3.72,17.7,186.58
710,1715781885580,0.91,0.27,0.029999999999999995,-3.7199999999999998,17.7,186.57999999999998
711,1715781885590,0.91,0.27,0.03,-3.72,17.7,186.58
712,1715781885600,0.8462745098039216,0.2903921568627451,-0.026078431372549022,-4.518039215686275,25.165294117647058,185.9343137254902
713,1715781885610,0.66,0.35,-0.19,-9.22,69.15,182.13
714,1715781885620,0.66,0.35,-0.19,-9.22,69.15,182.13
715,1715781885630,0.66,0.35,-0.19,-9.219999999999999,69.15,182.13
716,1715781885640,0.8712403100775193,0.22325581395348834,-0.08015503875968992,-10.017093023255816,53.66162790697675,176.7753488372093
717,1715781885650,1.16,0.05,0.07,-13.79,-19.65,151.43
718,1715781885660,1.16,0.05,0.07,-13.79,-19.65,151.43
719,1715781885670,1.16,0.05,0.07,-13.79,-19.65,151.43
720,1715781885680,1.0892857142857142,0.10785714285714287,-0.026428571428571426,0.7976190476190481,16.514126984126985,153.24333333333334
721,1715781885690,1.05,0.14,-0.08,13.24,47.36,154.79
722,1715781885700,1.05,0.14,-0.08,13.24,47.36,154.79
723,1715781885710,1.05,0.14,-0.08,13.24,47.36,154.79
724,1715781885720,1.1279850746268658,0.01522388059701493,-0.0332089552238806,-20.798619402985075,-1.3819776119402987,125.67320895522387
725,1715781885730,1.15,-0.02,-0.02,-36.07,-23.25,112.61
726,1715781885740,1.15,-0.02,-0.02,-36.07,-23.25,112.61
727,1715781885750,1.15,-0.02,-0.02,-36.07,-23.25,112.61
728,1715781885760,1.0651330798479088,0.12144486692015209,0.03657794676806084,4.876768060836502,-5.432509505703422,119.60315589353613
729,1715781885770,1.06,0.13,0.04,12.88,-1.95,120.97
730,1715781885780,1.06,0.13,0.04,12.88,-1.95,120.97
731,1715781885790,1.0531086142322097,0.12397003745318352,0.03310861423220974,12.699662921348317,-1.382247191011236,121.26696629213482
732,1715781885800,0.98,0.06,-0.04,-3.17,48.58,147.4
733,1715781885810,0.98,0.06,-0.04,-3.17,48.58,147.4
734,1715781885820,0.98,0.06,-0.04,-3.17,48.58,147.4
735,1715781885830,0.98,0.05999999999999999,-0.04,-3.17,48.58,147.4
736,1715781885840,0.9799999999999999,0.06,-0.04,-3.17,48.58,147.4
737,1715781885850,1.0343873517786562,0.012411067193675887,0.04837944664031621,8.090316205533597,51.30383399209486,133.53750988142292
738,1715781885860,1.06,-0.01,0.09,13.49,52.61,126.89
739,1715781885870,1.0295419847328244,-0.044809160305343515,0.06389312977099236,-3.6781679389312965,32.14679389312977,121.68587786259542
740,1715781885880,0.99,-0.09,0.03,-37.05,-7.63,111.57
741,1715781885890,0.99,-0.09,0.03,-37.05,-7.629999999999999,111.57
742,1715781885900,0.99,-0.09,0.03,-37.05,-7.63,111.57
743,1715781885910,1.0320553359683795,-0.1373122529644269,0.06679841897233202,-21.769723320158104,-14.88316205533597,111.0794071146245
744,1715781885920,1.07,-0.18,0.1,-0.92,-24.78,110.41
745,1715781885930,1.07,-0.18,0.1,-0.92,-24.78,110.41
746,1715781885940,1.07,-0.18,0.1,-0.92,-24.78,110.41
747,1715781885950,1.2062231759656652,-0.2510729613733906,0.03484978540772533,-1.726952789699571,-17.20549356223176,110.51510729613734
748,1715781885960,1.3,-0.3,-0.01,-3.3,-2.44,110.72
749,1715781885970,1.3,-0.3,-0.01,-3.3,-2.44,110.72
750,1715781885980,1.3,-0.3,-0.01,-3.3,-2.44,110.72
751,1715781885990,1.1257954545454547,-0.2751136363636364,-0.0017045454545454547,-15.837689393939392,-9.355833333333333,95.6382196969697
752,1715781886000,1.09,-0.27,0.0,-20.45,-11.9,90.09
753,1715781886010,,,,,,
754,1715781886020,,,,,,
755,1715781886030,1.2093814432989691,-0.36948453608247417,0.07958762886597938,-19.95103092783505,13.84680412371134,83.22237113402062
756,1715781886040,1.21,-0.37,0.08,-19.9,16.48,82.52
757,1715781886050,1.21,-0.37,0.08,-19.9,16.48,82.52
758,1715781886060,1.1918577075098815,-0.37403162055335964,0.07798418972332016,-19.217272727272725,14.72090909090909,81.79818181818182
759,1715781886070,1.12,-0.39,0.07,-12.39,-2.87,74.58
760,1715781886080,1.12,-0.39,0.07,-12.39,-2.87,74.58
761,1715781886090,1.12,-0.39,0.07,-12.39,-2.87,74.58
762,1715781886100,1.1471641791044775,-0.39,0.0598134328358209,-10.366007462686568,-3.3425,71.15261194029851
763,1715781886110,1.2,-0.39,0.04,-3.78,-4.88,60.0
764,1715781886120,1.2,-0.39,0.04,-3.78,-4.88,60.0
765,1715781886130,1.2,-0.39,0.04,-3.78,-4.88,60.0
766,1715781886140,1.1775,-0.395625,0.05125,-4.0683203125,-6.7848046875,52.900703125
767,1715781886150,1.16,-0.4000000000000001,0.06,-4.39,-8.91,44.98
768,1715781886160,1.16,-0.4,0.06,-4.39,-8.91,44.98
769,1715781886170,1.16,-0.4,0.06,-4.39,-8.91,44.98
770,1715781886180,1.1672030651340997,-0.4,0.031187739463601535,-2.7424904214559387,1.5879310344827584,36.538160919540225
771,1715781886190,1.17,-0.4,0.02,-1.8900000000000001,7.02,32.17
772,1715781886200,1.17,-0.4,0.02,-1.89,7.02,32.17
773,1715781886210,1.17,-0.4,0.02,-1.89,7.02,32.17
774,1715781886220,1.1369696969696967,-0.4247727272727273,0.04477272727272728,-5.177272727272727,1.8272727272727272,22.846363636363638
775,1715781886230,1.13,-0.43,0.05,-6.41,-0.12,19.35
776,1715781886240,1.13,-0.43,0.05,-6.41,-0.12,19.35
777,1715781886250,1.1269999999999998,-0.429,0.049,-6.41,-0.12,19.35
778,1715781886260,1.1,-0.42,0.04,3.11,3.11,7.63
779,1715781886270,1.1,-0.42,0.04,3.11,3.11,7.629999999999999
780,1715781886280,1.1,-0.42,0.04,3.11,3.11,7.63
781,1715781886290,1.1079069767441863,-0.423953488372093,0.038023255813953494,3.270232558139535,2.685736434108527,6.658527131782946
782,1715781886300,1.14,-0.44,0.03,4.7,-1.1,-2.01
783,1715781886310,1.14,-0.44,0.03,4.7,-1.1,-2.01
784,1715781886320,1.14,-0.44,0.03,4.7,-1.1,-2.01
785,1715781886330,1.1216393442622952,-0.43311475409836064,0.02081967213114754,4.252459016393443,1.084918032786885,-4.6447540983606554
786,1715781886340,1.06,-0.41,-0.01,2.75,8.42,-13.49
787,1715781886350,1.06,-0.41,-0.01,2.75,8.42,-13.49
788,1715781886360,1.06,-0.41,-0.01,2.75,8.42,-13.49
