id,timestamp,acc_x,acc_y,acc_z,gyro_x,gyro_y,gyro_z
0,1715781896610,1.2582352941176471,-0.8069117647058823,-0.02661764705882353,-0.9908823529411767,22.013529411764708,139.14352941176472
1,1715781896620,1.32,-0.84,-0.02,1.89,34.79,138.12
2,1715781896630,1.32,-0.84,-0.02,1.89,34.79,138.12
3,1715781896640,1.32,-0.84,-0.02,1.89,34.79,138.12
4,1715781896650,1.2002390438247013,-0.7734661354581672,-0.05326693227091634,-5.3715537848605575,28.01948207171315,120.03254980079682
5,1715781896660,1.14,-0.74,-0.07,-10.68,23.07,106.81
6,1715781896670,1.14,-0.74,-0.07,-10.68,23.07,106.81
7,1715781896680,1.14,-0.74,-0.07,-10.68,23.07,106.81
8,1715781896690,1.272889733840304,-0.8197338403041825,0.054030418250950576,-6.831330798479088,41.538821292775665,86.19326996197718
9,1715781896700,1.29,-0.83,0.07,-5.86,46.2,80.99
10,1715781896710,1.29,-0.83,0.07,-5.86,46.2,80.99
11,1715781896720,1.2858122743682312,-0.8282671480144403,0.06841155234657041,-5.86,46.2,80.99
12,1715781896730,1.0,-0.71,-0.04,-9.459466666666668,27.223466666666667,53.20973333333333
13,1715781896740,1.0,-0.71,-0.04,-9.83,25.27,50.35
14,1715781896750,1.0,-0.71,-0.04,-9.83,25.27,50.35
15,1715781896760,1.0283464566929132,-0.7206299212598425,-0.02346456692913386,-9.738464566929135,25.10488188976378,50.094173228346456
16,1715781896770,1.24,-0.8,0.1,-2.08,11.29,28.69
17,1715781896780,1.24,-0.8,0.1,-2.08,11.29,28.69
18,1715781896790,1.24,-0.8,0.1,-2.08,11.29,28.69
19,1715781896800,1.177857142857143,-0.7771052631578947,0.07056390977443609,-2.0572556390977446,11.322368421052632,28.600714285714286
20,1715781896810,1.05,-0.73,0.01,3.97,19.9,4.94
21,1715781896820,1.05,-0.73,0.01,3.9700000000000006,19.9,4.94
22,1715781896830,1.05,-0.73,0.01,3.97,19.9,4.94
23,1715781896840,1.02956,-0.72124,0.01584,3.5633600000000003,17.842879999999997,2.77576
24,1715781896850,0.98,-0.7,0.03,0.06,0.12,-15.87
25,1715781896860,0.9799999999999999,-0.7,0.03,0.06,0.12,-15.869999999999997
26,1715781896870,0.98,-0.7,0.03,0.06,0.12,-15.870000000000001
27,1715781896880,0.9455172413793104,-0.7114942528735632,0.03574712643678161,0.06,0.12,-15.87
28,1715781896890,0.92,-0.72,0.04,0.06,0.12,-15.87
29,1715781896900,0.92,-0.72,0.039999999999999994,2.5492241379310343,4.1923706896551725,-26.872370689655174
30,1715781896910,0.92,-0.72,0.04,2.56,4.21,-26.92
31,1715781896920,0.9553053435114504,-0.72706106870229,0.04,-1.8030534351145036,4.270458015267176,-32.66854961832061
32,1715781896930,0.9699999999999999,-0.73,0.04,-6.1,4.33,-38.33
33,1715781896940,0.97,-0.73,0.04,-6.1,4.33,-38.33
34,1715781896950,0.9695785440613027,-0.7304214559386972,0.04084291187739464,-6.1,4.33,-38.33
35,1715781896960,0.96,-0.74,0.06,6.431687242798353,7.226296296296296,-52.25304526748971
36,1715781896970,0.9599999999999999,-0.74,0.05999999999999999,7.14,7.39,-53.04
37,1715781896980,0.96,-0.74,0.06,7.14,7.39,-53.04
38,1715781896990,0.968108108108108,-0.7383783783783784,0.05351351351351351,6.994749034749034,7.892857142857143,-54.087335907335905
39,1715781897000,1.01,-0.73,0.02,5.43,13.31,-65.37
40,1715781897010,1.01,-0.73,0.02,5.43,13.31,-65.37
41,1715781897020,1.01,-0.73,0.02,5.43,13.31,-65.37
42,1715781897030,1.0427480916030534,-0.7270229007633587,0.03190839694656488,5.456832061068702,12.716793893129772,-66.7420610687023
43,1715781897040,1.12,-0.72,0.06,5.8,5.13,-84.29
44,1715781897050,1.12,-0.72,0.06,5.8,5.13,-84.29
45,1715781897060,1.12,-0.72,0.06,5.8,5.13,-84.29
46,1715781897070,1.12,-0.72,0.06,5.8,5.13,-84.29
47,1715781897080,1.12,-0.72,0.06,5.8,5.13,-84.29
48,1715781897090,1.1467293233082705,-0.7110902255639097,0.042180451127819554,6.829172932330827,22.776766917293234,-102.97481203007519
49,1715781897100,1.15,-0.71,0.04,6.96,25.02,-105.35
50,1715781897110,1.1336904761904762,-0.6719444444444443,0.056309523809523816,6.3221428571428575,16.37952380952381,-113.74166666666667
51,1715781897120,1.12,-0.64,0.07,5.55,5.92,-123.9
52,1715781897130,1.12,-0.64,0.07,5.55,5.92,-123.90000000000002
53,1715781897140,1.12,-0.64,0.07,5.55,5.92,-123.9
54,1715781897150,1.1156854838709678,-0.6313709677419356,0.06568548387096775,7.6913709677419355,8.189596774193548,-130.60620967741934
55,1715781897160,1.11,-0.62,0.06,10.56,11.23,-139.59
56,1715781897170,1.11,-0.62,0.06,10.56,11.230000000000002,-139.59
57,1715781897180,1.11,-0.62,0.06,10.56,11.23,-139.59
58,1715781897190,1.1385267857142856,-0.5344196428571429,0.06,7.2609375,-10.454375,-149.1665625
59,1715781897200,1.14,-0.53,0.06,6.65,-14.47,-150.94
60,1715781897210,1.14,-0.53,0.06,6.65,-14.47,-150.94
61,1715781897220,1.1385425101214575,-0.5283805668016195,0.05902834008097166,6.65,-14.47,-150.94
62,1715781897230,1.05,-0.43,0.0,6.5764822134387355,-14.276916996047431,-151.11727272727273
63,1715781897240,1.05,-0.43,0.0,2.93,-4.7,-159.91
64,1715781897250,1.05,-0.43,0.0,2.93,-4.7,-159.91
65,1715781897260,1.0514342629482072,-0.4242629482071713,0.0057370517928286855,2.6770119521912354,-5.358964143426295,-160.02195219123507
66,1715781897270,1.06,-0.39,0.04,-3.42,-21.24,-162.72
67,1715781897280,1.06,-0.39,0.04,-3.42,-21.24,-162.72
68,1715781897290,1.06,-0.39,0.04,-3.42,-21.24,-162.72
69,1715781897300,1.0247252747252746,-0.32728937728937735,0.016483516483516484,-2.872637362637363,-20.533846153846152,-162.18384615384616
70,1715781897310,0.9700000000000001,-0.23,-0.02,-0.48999999999999994,-17.46,-159.85
71,1715781897320,0.97,-0.23,-0.02,-0.49,-17.46,-159.85
72,1715781897330,0.97,-0.23,-0.02,-0.49,-17.46,-159.85
73,1715781897340,1.034453125,-0.23429687500000002,-0.01140625,-2.427890625,-6.81234375,-162.4453125
74,1715781897350,1.12,-0.24,0.0,-5.0,7.32,-165.89
75,1715781897360,1.12,-0.23999999999999996,0.0,-5.0,7.32,-165.89
76,1715781897370,1.12,-0.24,0.0,-5.0,7.32,-165.89
77,1715781897380,1.077071129707113,-0.1899163179916318,0.028619246861924685,-7.407364016736402,5.991799163179916,-168.23510460251043
78,1715781897390,1.06,-0.17,0.04,-9.64,4.76,-170.41
79,1715781897400,1.06,-0.17,0.04,-9.64,4.76,-170.41
80,1715781897410,1.0600000000000003,-0.17,0.04,-9.64,4.759999999999999,-170.41
81,1715781897420,1.078974358974359,-0.07512820512820513,0.011538461538461537,3.0595604395604394,17.99626373626374,-176.03087912087912
82,1715781897430,1.08,-0.07,0.01,7.87,23.01,-178.16
83,1715781897440,1.08,-0.07,0.01,7.87,23.01,-178.16
84,1715781897450,1.06374531835206,-0.05955056179775282,0.016966292134831463,7.773970037453184,22.899438202247193,-178.32823970037452
85,1715781897460,0.94,0.02,0.07,1.46,15.630000000000003,-189.39
86,1715781897470,0.9400000000000001,0.02,0.07,1.46,15.629999999999999,-189.39
87,1715781897480,0.94,0.02,0.07,1.46,15.63,-189.39
88,1715781897490,0.9001532567049808,0.05735632183908046,0.060038314176245215,1.46,15.63,-189.39
89,1715781897500,0.78,0.17,0.029999999999999995,6.459440298507462,20.7160447761194,-188.19328358208955
90,1715781897510,0.78,0.17,0.03,7.81,22.09,-187.87
91,1715781897520,0.78,0.17,0.03,7.81,22.09,-187.87
92,1715781897530,0.78,0.17,0.03,7.81,22.09,-187.87
93,1715781897540,0.5795094339622642,0.3704905660377359,0.020452830188679244,8.974754716981131,19.81777358490566,-189.26388679245284
94,1715781897550,0.57,0.38,0.02,9.03,19.71,-189.33
95,1715781897560,0.531766917293233,0.3842481203007519,0.041240601503759404,7.751052631578946,14.590827067669174,-187.12060150375942
96,1715781897570,0.48000000000000004,0.39,0.07,5.25,4.58,-182.8
97,1715781897580,0.48,0.39,0.07,5.25,4.58,-182.8
98,1715781897590,0.48,0.39,0.07,5.25,4.58,-182.8
99,1715781897600,0.48,0.49655737704918035,0.03721311475409836,12.346967213114755,10.243114754098361,-170.66647540983607
100,1715781897610,0.48,0.52,0.03,17.03,13.98,-162.66
101,1715781897620,0.48,0.52,0.03,17.03,13.98,-162.66
102,1715781897630,0.48,0.52,0.03,17.03,13.98,-162.66
103,1715781897640,0.3530708661417323,0.6176377952755905,0.020236220472440943,9.281535433070866,0.6375984251968506,-147.21007874015748
104,1715781897650,0.35,0.62,0.02,7.14,-3.05,-142.94
105,1715781897660,0.35,0.62,0.02,7.14,-3.05,-142.94
106,1715781897670,0.3488636363636363,0.6245454545454545,0.022272727272727274,7.14,-3.05,-142.94
107,1715781897680,0.33,0.7,0.06,16.880506329113924,-1.9487341772151898,-136.10455696202533
108,1715781897690,0.33,0.7,0.06,17.4,-1.89,-135.74
109,1715781897700,0.33,0.7,0.06,17.4,-1.89,-135.74
110,1715781897710,0.34122881355932205,0.7157203389830509,0.04652542372881356,16.16135593220339,-2.5781355932203387,-134.42186440677966
111,1715781897720,0.38,0.77,0.0,6.96,-7.69,-124.63000000000001
112,1715781897730,0.38,0.77,0.0,6.96,-7.6899999999999995,-124.63
113,1715781897740,0.37999999999999995,0.77,0.0,6.96,-7.69,-124.63
114,1715781897750,0.3684191176470588,0.766139705882353,0.011580882352941177,8.84529411764706,-8.442941176470589,-124.83000000000001
115,1715781897760,0.35,0.76,0.03,13.37,-10.25,-125.31
116,1715781897770,0.35,0.76,0.03,13.37,-10.25,-125.31
117,1715781897780,0.35,0.76,0.03,13.37,-10.25,-125.30999999999999
118,1715781897790,0.33296296296296296,0.7713580246913581,0.03567901234567901,20.430329218106994,5.328477366255144,-121.66769547325103
119,1715781897800,0.32,0.78,0.04,29.11,24.48,-117.19
120,1715781897810,0.32,0.78,0.04,29.110000000000003,24.48,-117.19000000000001
121,1715781897820,0.32,0.78,0.04,29.11,24.48,-117.19
122,1715781897830,0.08454198473282444,0.9015267175572519,-0.043549618320610696,30.23912213740458,41.28477099236641,-117.83049618320611
123,1715781897840,0.01,0.94,-0.07,30.82,49.93,-118.16
124,1715781897850,0.01,0.94,-0.07,30.82,49.93,-118.16
125,1715781897860,0.01,0.94,-0.07,30.82,49.93,-118.16
126,1715781897870,-0.10624548736462094,0.9067870036101083,-0.07,26.15187725631769,45.93072202166066,-105.36920577617329
127,1715781897880,-0.13,0.9,-0.06999999999999999,24.05,44.13,-99.61
128,1715781897890,-0.13,0.9,-0.07,24.05,44.13,-99.61
129,1715781897900,-0.14274131274131274,0.9038223938223938,-0.08146718146718147,24.05,44.13,-99.61
130,1715781897910,-0.23,0.93,-0.16,22.47277108433735,40.43987951807228,-72.42016064257028
131,1715781897920,-0.22999999999999998,0.9300000000000002,-0.16,22.46,40.41,-72.2
132,1715781897930,-0.23,0.9299999999999999,-0.16,22.46,40.41,-72.2
133,1715781897940,-0.23,0.93,-0.16,22.46,40.41,-72.2
134,1715781897950,-0.23987012987012987,0.9546753246753247,-0.15670995670995672,20.358528138528136,34.41632034632034,-69.0525974025974
135,1715781897960,-0.29,1.08,-0.14,9.34,2.99,-52.55
136,1715781897970,-0.29,1.08,-0.14,9.34,2.99,-52.55
137,1715781897980,-0.2926359832635983,1.08,-0.1382426778242678,8.71154811715481,4.624309623430962,-49.56757322175732
138,1715781897990,-0.32,1.08,-0.11999999999999998,1.83,22.52,-16.91
139,1715781898000,-0.32,1.08,-0.12000000000000001,1.8299999999999998,22.52,-16.91
140,1715781898010,-0.32,1.08,-0.12,1.83,22.52,-16.91
141,1715781898020,-0.33307392996108953,1.0734630350194552,-0.10038910505836576,-2.8766147859922175,17.774163424124513,-1.4696887159533076
142,1715781898030,-0.34,1.07,-0.09,-5.37,15.259999999999998,6.71
143,1715781898040,-0.34,1.07,-0.08999999999999998,-5.37,15.26,6.71
144,1715781898050,-0.34,1.07,-0.09,-5.37,15.26,6.71
145,1715781898060,-0.24403225806451612,1.0412096774193549,-0.05161290322580645,-4.959032258064516,-1.3296774193548384,26.931290322580644
146,1715781898070,-0.24,1.04,-0.05,-4.88,-4.52,30.82
147,1715781898080,-0.24,1.04,-0.05,-4.88,-4.52,30.82
148,1715781898090,-0.23479245283018868,1.0365283018867926,-0.05,-4.858377358490566,-4.505698113207547,30.90754716981132
149,1715781898100,-0.18,1.0,-0.05,0.85,-0.73,54.02
150,1715781898110,-0.18,1.0,-0.05,0.85,-0.73,54.02
151,1715781898120,-0.18,1.0,-0.05,0.85,-0.73,54.02
152,1715781898130,-0.1695,0.997375,-0.0605,1.1616666666666666,0.40191666666666664,57.36616666666667
153,1715781898140,-0.14,0.9900000000000001,-0.09,3.05,7.26,77.64
154,1715781898150,-0.14,0.99,-0.09,3.05,7.26,77.64
155,1715781898160,-0.14,0.99,-0.09,3.05,7.26,77.64
156,1715781898170,-0.1128515625,0.957421875,-0.0954296875,-0.7956250000000002,6.56875,84.74062500000001
157,1715781898180,-0.09,0.93,-0.1,-5.74,5.68,93.87
158,1715781898190,-0.09,0.93,-0.1,-5.74,5.68,93.87
159,1715781898200,-0.09,0.93,-0.1,-5.74,5.68,93.87
160,1715781898210,-0.03175115207373272,0.9081566820276498,-0.0927188940092166,-14.743317972350232,-3.0269124423963136,105.7447465437788
161,1715781898220,-0.010000000000000002,0.9,-0.09,-20.32,-8.42,113.1
162,1715781898230,-0.01,0.9,-0.09,-20.32,-8.42,113.1
163,1715781898240,-0.01,0.9,-0.09,-20.32,-8.42,113.1
164,1715781898250,0.07833333333333334,0.7763333333333333,-0.028166666666666666,-21.454124999999998,-14.002708333333334,128.66125
165,1715781898260,0.09,0.76,-0.02,-21.61,-14.77,130.8
166,1715781898270,0.09,0.76,-0.02,-21.61,-14.77,130.8
167,1715781898280,0.1867479674796748,0.7116260162601626,-0.02967479674796748,-10.199959349593497,1.822560975609756,147.75788617886178
168,1715781898290,0.19,0.71,-0.03,-8.18,4.76,150.76
169,1715781898300,0.19,0.71,-0.03,-8.18,4.76,150.76
170,1715781898310,0.19515625,0.703125,-0.03,-9.02109375,3.7488281249999997,150.75671875
171,1715781898320,0.22,0.67,-0.03,-23.56,-13.73,150.7
172,1715781898330,0.22,0.67,-0.03,-23.56,-13.73,150.7
173,1715781898340,0.22,0.67,-0.03,-23.56,-13.73,150.7
174,1715781898350,0.30042635658914724,0.612093023255814,-0.020348837209302327,-20.68732558139535,-16.18418604651163,159.1406976744186
175,1715781898360,0.47,0.48999999999999994,0.0,-11.41,-24.11,186.4
176,1715781898370,0.47,0.49,0.0,-11.41,-24.11,186.4
177,1715781898380,0.47,0.49,0.0,-11.410000000000002,-24.11,186.4
178,1715781898390,0.5436121673003802,0.4577946768060836,0.018403041825095057,-8.035285171102663,-31.154486692015205,176.4971482889734
179,1715781898400,0.63,0.42,0.04,-2.26,-43.21,159.55
180,1715781898410,0.63,0.42,0.04,-2.26,-43.21,159.55
181,1715781898420,0.63,0.42,0.04,-2.26,-43.21,159.55
182,1715781898430,0.7311764705882353,0.3477310924369748,-0.03949579831932773,-2.0919327731092436,-27.323445378151263,168.2936974789916
183,1715781898440,0.77,0.32,-0.07,-1.46,32.41,201.17
184,1715781898450,0.77,0.32,-0.07,-1.46,32.41,201.17
185,1715781898460,0.77,0.32,-0.07,-1.46,32.41,201.17
186,1715781898470,0.7436619718309859,0.28488262910798123,-0.03488262910798122,1.5949295774647887,-9.718873239436624,169.37211267605636
187,1715781898480,0.74,0.28,-0.03,3.36,-34.06,151.0
188,1715781898490,0.74,0.28,-0.03,3.36,-34.06,151.0
189,1715781898500,0.74,0.28,-0.03,3.36,-34.06,151.0
190,1715781898510,1.0459160305343513,0.07896946564885497,-0.04748091603053436,2.0752671755725194,16.651908396946567,182.3163358778626
191,1715781898520,1.09,0.05,-0.05,1.71,31.07,191.22
192,1715781898530,1.09,0.05,-0.05,1.71,31.07,191.22
193,1715781898540,1.037372549019608,0.07631372549019608,-0.05,1.71,31.07,191.22
194,1715781898550,0.87,0.16,-0.05,6.416175298804781,-3.4598804780876495,153.03274900398407
195,1715781898560,0.87,0.16,-0.05,6.96,-7.45,148.62
196,1715781898570,0.87,0.16,-0.05,6.96,-7.45,148.62
197,1715781898580,0.9235714285714286,0.12357142857142858,-0.04142857142857143,4.397142857142858,6.675714285714285,152.34857142857143
198,1715781898590,1.12,-0.01,-0.01,-5.0,58.47,166.02
199,1715781898600,1.12,-0.01,-0.01,-5.0,58.47,166.02
200,1715781898610,1.12,-0.01,-0.01,-5.0,58.47,166.02
201,1715781898620,0.9642911877394637,-0.039195402298850573,-0.014865900383141763,-6.870689655172414,40.37597701149425,160.2119540229885
202,1715781898630,0.8,-0.07,-0.02,-10.25,7.69,149.72
203,1715781898640,0.8,-0.07,-0.02,-10.25,7.690000000000001,149.72
204,1715781898650,0.8,-0.07,-0.02,-10.25,7.69,149.72
205,1715781898660,1.0069076305220885,-0.1734538152610442,0.005863453815261044,-11.35265060240964,15.424457831325302,160.10506024096387
206,1715781898670,1.12,-0.23,0.02,-12.33,22.28,169.31
207,1715781898680,1.12,-0.23,0.02,-12.33,22.28,169.31
208,1715781898690,1.12,-0.23,0.02,-12.33,22.28,169.31
209,1715781898700,1.005344827586207,-0.2545689655172414,0.028189655172413793,-12.063663793103448,-10.27780172413793,146.0235775862069
210,1715781898710,0.9799999999999999,-0.26,0.03,-11.96,-22.95,136.96
211,1715781898720,0.98,-0.26,0.03,-11.96,-22.95,136.96
212,1715781898730,0.98,-0.26,0.03,-11.96,-22.95,136.96
213,1715781898740,1.1629338842975208,-0.3947933884297521,0.058884297520661155,2.356115702479339,37.75371900826446,156.40111570247933
214,1715781898750,1.17,-0.4,0.06,4.94,48.71,159.91
215,1715781898760,1.17,-0.4,0.05999999999999999,4.94,48.71,159.91
216,1715781898770,1.17,-0.4,0.06,4.94,48.71,159.91
217,1715781898780,0.9675652173913044,-0.39156521739130434,-0.024347826086956525,-2.2476086956521737,24.930434782608696,147.96647826086956
218,1715781898790,0.93,-0.39,-0.04,-11.11,-4.39,133.24
219,1715781898800,0.93,-0.39,-0.04,-11.11,-4.39,133.24
220,1715781898810,0.951918819188192,-0.4086715867158672,-0.028634686346863468,-10.777970479704797,-4.11520295202952,133.19291512915132
221,1715781898820,1.2,-0.62,0.1,-2.93,2.38,132.08
222,1715781898830,1.2,-0.62,0.1,-2.93,2.38,132.08
223,1715781898840,1.2,-0.62,0.1,-2.93,2.38,132.08
224,1715781898850,1.1719183673469389,-0.6059591836734695,0.06840816326530613,-1.869918367346939,2.4870612244897963,130.40914285714285
225,1715781898860,1.04,-0.54,-0.08,3.11,2.99,122.56000000000002
226,1715781898870,1.04,-0.54,-0.08,3.11,2.99,122.56
227,1715781898880,1.04,-0.54,-0.08,3.11,2.99,122.56
228,1715781898890,1.1145454545454545,-0.6145454545454546,-0.02875,-0.2941666666666666,5.494545454545454,115.68329545454546
229,1715781898900,1.2,-0.7,0.03,-6.35,9.95,103.45
230,1715781898910,1.2,-0.7,0.03,-6.35,9.95,103.45
231,1715781898920,1.2,-0.7,0.03,-6.35,9.95,103.45
232,1715781898930,1.1461596958174904,-0.7,0.009809885931558935,-8.870494296577947,12.154714828897337,99.84437262357415
233,1715781898940,1.12,-0.7,0.0,-10.74,13.79,97.17
234,1715781898950,1.12,-0.7,0.0,-10.74,13.79,97.17
235,1715781898960,1.12,-0.7,0.0,-10.74,13.79,97.17
236,1715781898970,1.1266037735849057,-0.7066037735849057,0.026415094339622643,-7.959811320754716,20.803207547169812,78.10490566037736
237,1715781898980,1.13,-0.71,0.04,-6.53,24.41,68.3
238,1715781898990,1.13,-0.71,0.04,-6.53,24.41,68.3
239,1715781899000,1.13,-0.71,0.04,-6.53,24.41,68.3
240,1715781899010,1.1399199999999998,-0.73976,0.03008,-6.2648,10.60192,50.32828
241,1715781899020,1.14,-0.74,0.03,-6.23,8.79,47.97
242,1715781899030,1.14,-0.74,0.03,-6.23,8.79,47.97
243,1715781899040,1.1357081545064378,-0.7365665236051502,0.029999999999999995,-5.76304721030043,8.716180257510729,45.58630901287554
244,1715781899050,1.09,-0.7,0.03,-0.79,7.930000000000001,20.2
245,1715781899060,1.09,-0.7,0.03,-0.79,7.93,20.2
246,1715781899070,1.09,-0.7,0.03,-0.79,7.93,20.2
247,1715781899080,1.0926515151515153,-0.6973484848484848,0.027348484848484848,-0.79,7.93,20.2
248,1715781899090,1.1,-0.69,0.02,3.1884732824427475,17.43587786259542,8.783511450381678
249,1715781899100,1.1,-0.69,0.02,4.27,20.02,5.68
250,1715781899110,1.1,-0.69,0.02,4.27,20.02,5.68
251,1715781899120,1.0691666666666666,-0.6871969696969696,0.02,4.27,20.02,5.68
252,1715781899130,0.99,-0.68,0.02,-4.398527131782945,7.17906976744186,-13.149767441860465
253,1715781899140,0.9900000000000001,-0.68,0.02,-5.37,5.74,-15.26
254,1715781899150,0.99,-0.68,0.02,-5.37,5.74,-15.26
255,1715781899160,1.0098347107438017,-0.691900826446281,0.03586776859504132,-2.900785123966942,5.763553719008264,-21.631280991735537
256,1715781899170,1.04,-0.71,0.06,0.92,5.8,-31.49
257,1715781899180,1.04,-0.71,0.06,0.92,5.8,-31.49
258,1715781899190,1.04,-0.71,0.06,0.92,5.8,-31.49
259,1715781899200,1.04,-0.6853409090909092,0.03534090909090909,2.198068181818182,11.906325757575758,-40.9489393939394
260,1715781899210,1.04,-0.68,0.03,2.99,15.69,-46.81
261,1715781899220,1.04,-0.68,0.03,2.99,15.689999999999998,-46.81
262,1715781899230,1.04,-0.68,0.03,2.99,15.69,-46.81
263,1715781899240,1.1242857142857143,-0.7080952380952381,0.07682539682539682,0.8669841269841271,7.707460317460318,-64.59238095238095
264,1715781899250,1.1300000000000001,-0.71,0.08,0.49,6.29,-67.75
265,1715781899260,1.13,-0.71,0.08,0.49,6.29,-67.75
266,1715781899270,1.1283516483516483,-0.7001098901098901,0.0734065934065934,0.7724908424908424,6.701428571428571,-68.82663003663004
267,1715781899280,1.12,-0.65,0.04,5.31,13.31,-86.12
268,1715781899290,1.12,-0.65,0.04,5.31,13.31,-86.12
269,1715781899300,1.12,-0.65,0.04,5.31,13.31,-86.12
270,1715781899310,1.12,-0.65,0.04,5.31,13.31,-86.12
271,1715781899320,1.1691769547325102,-0.6795061728395062,0.08917695473251028,2.546255144032922,14.627942386831275,-104.55152263374485
272,1715781899330,1.17,-0.68,0.09,2.5,14.65,-104.86
273,1715781899340,1.17,-0.68,0.09,2.5,14.65,-104.86
274,1715781899350,1.1494238683127571,-0.6553086419753087,0.08176954732510289,4.357407407407407,14.499588477366256,-110.72954732510287
275,1715781899360,1.12,-0.62,0.07,7.81,14.22,-121.64
276,1715781899370,1.12,-0.62,0.07,7.81,14.22,-121.64000000000001
277,1715781899380,1.12,-0.62,0.07,7.809999999999999,14.220000000000002,-121.64000000000001
278,1715781899390,1.166153846153846,-0.6015384615384615,0.14384615384615385,7.533076923076923,2.2753846153846156,-136.12307692307692
279,1715781899400,1.17,-0.6,0.15,7.51,1.28,-137.33
280,1715781899410,1.17,-0.6,0.15,7.51,1.28,-137.33
281,1715781899420,1.17,-0.6,0.15,7.51,1.28,-137.33
282,1715781899430,1.1260439560439561,-0.5706959706959708,0.11336996336996337,9.806666666666667,3.68,-142.15
283,1715781899440,1.11,-0.56,0.1,14.4,8.48,-151.79
284,1715781899450,1.11,-0.56,0.1,14.4,8.48,-151.79
285,1715781899460,1.11,-0.56,0.1,14.4,8.48,-151.79
286,1715781899470,1.1496138996138996,-0.5005791505791506,0.0801930501930502,12.307065637065637,-9.531119691119692,-164.92861003861006
287,1715781899480,1.17,-0.47,0.07,11.23,-18.8,-171.69
288,1715781899490,1.17,-0.47,0.07,11.229999999999999,-18.800000000000004,-171.69
289,1715781899500,1.1699999999999997,-0.47,0.07,11.23,-18.8,-171.69
290,1715781899510,1.1662841530054644,-0.4625683060109289,0.06907103825136612,12.720983606557377,-14.921584699453552,-171.832131147541
291,1715781899520,1.13,-0.39,0.06,27.28,22.95,-173.22
292,1715781899530,1.13,-0.39,0.06,27.28,22.95,-173.22
293,1715781899540,1.1208629441624365,-0.3747715736040609,0.05695431472081218,27.279999999999998,22.95,-173.21999999999997
294,1715781899550,1.04,-0.24,0.03,20.53609243697479,7.704621848739496,-184.13071428571428
295,1715781899560,1.04,-0.23999999999999996,0.029999999999999995,20.45,7.51,-184.27
296,1715781899570,1.04,-0.24,0.03,20.45,7.51,-184.27
297,1715781899580,1.0275984251968504,-0.2240551181102362,0.037086614173228345,21.346456692913385,10.018661417322836,-182.91822834645671
298,1715781899590,0.97,-0.15,0.07,25.51,21.67,-176.64
299,1715781899600,0.97,-0.15,0.07,25.51,21.67,-176.64
300,1715781899610,0.9699999999999999,-0.15,0.07,25.510000000000005,21.67,-176.64
301,1715781899620,0.9148888888888889,-0.10407407407407407,0.05622222222222223,27.041851851851852,24.622296296296298,-172.11407407407407
302,1715781899630,0.85,-0.05,0.04,29.91,30.149999999999995,-163.64
303,1715781899640,0.85,-0.05,0.04,29.91,30.15,-163.64
304,1715781899650,0.85,-0.05,0.04,29.91,30.15,-163.64
305,1715781899660,0.80436,0.07388000000000002,0.02696,27.73604,13.998199999999999,-167.47084
306,1715781899670,0.78,0.14,0.02,26.0,1.1,-170.53
307,1715781899680,0.78,0.14,0.02,26.0,1.1,-170.53
308,1715781899690,0.78,0.14,0.02,26.0,1.1,-170.53
309,1715781899700,0.8636178861788618,0.12479674796747967,0.07321138211382112,16.693699186991868,4.634756097560976,-166.03121951219512
310,1715781899710,0.89,0.12,0.09,11.23,6.71,-163.39
311,1715781899720,0.89,0.12,0.09,11.23,6.71,-163.39
312,1715781899730,0.888228346456693,0.12224409448818896,0.08940944881889765,11.23,6.71,-163.39
313,1715781899740,0.74,0.31,0.04,16.685038167938934,1.3096946564885497,-173.86221374045803
314,1715781899750,0.74,0.31,0.04,17.21,0.79,-174.87
315,1715781899760,0.74,0.31,0.04,17.21,0.79,-174.87
316,1715781899770,0.731822429906542,0.31700934579439255,0.044672897196261684,17.064672897196264,0.5449065420560748,-174.75434579439252
317,1715781899780,0.67,0.37,0.08,10.99,-9.7,-169.92
318,1715781899790,0.67,0.37,0.08,10.99,-9.7,-169.92
319,1715781899800,0.67,0.37,0.08,10.99,-9.7,-169.92
320,1715781899810,0.6258396946564886,0.403969465648855,0.073206106870229,12.104694656488551,-6.127099236641221,-168.7024427480916
321,1715781899820,0.54,0.47,0.06,16.3,7.32,-164.12
322,1715781899830,0.54,0.47,0.06,16.3,7.32,-164.12
323,1715781899840,0.54,0.47,0.06,16.3,7.32,-164.12
324,1715781899850,0.4932319391634981,0.5074144486692015,0.04129277566539924,12.70577946768061,0.05855513307984823,-162.10022813688212
325,1715781899860,0.44,0.55,0.02,1.53,-22.52,-155.82
326,1715781899870,0.44,0.55,0.02,1.53,-22.52,-155.82
327,1715781899880,0.44,0.55,0.02,1.53,-22.52,-155.82
328,1715781899890,0.41729083665338645,0.5954183266932271,0.038167330677290834,-2.130717131474104,-38.29378486055777,-160.00756972111554
329,1715781899900,0.39,0.65,0.06,-6.53,-57.25,-165.04
330,1715781899910,0.39,0.65,0.06,-6.53,-57.25,-165.04
331,1715781899920,0.39,0.65,0.06,-6.53,-57.25,-165.04
332,1715781899930,0.30474903474903475,0.6855212355212355,0.07420849420849421,-2.1447876447876446,-37.05880308880309,-152.22830115830115
333,1715781899940,0.27,0.7,0.08,2.14,-17.33,-139.71
334,1715781899950,0.27,0.7,0.08,2.14,-17.33,-139.71
335,1715781899960,0.27,0.7,0.08,2.14,-17.33,-139.71
336,1715781899970,0.12694117647058822,0.8072941176470587,0.08,2.9316862745098042,-11.09643137254902,-131.50105882352943
337,1715781899980,0.11,0.82,0.08,3.17,-9.22,-129.03
338,1715781899990,0.11,0.82,0.08,3.17,-9.22,-129.03
339,1715781900000,0.10999999999999999,0.82,0.08,3.17,-9.22,-129.03
340,1715781900010,0.0735036496350365,0.8519343065693431,0.05262773722627737,6.016569343065694,-14.053284671532847,-114.38985401459854
341,1715781900020,0.029999999999999995,0.89,0.02,9.46,-19.9,-96.68
342,1715781900030,0.03,0.8899999999999999,0.019999999999999997,9.46,-19.9,-96.68
343,1715781900040,0.03,0.9030364372469636,0.014412955465587044,8.271821862348178,-21.337732793522267,-95.17987854251012
344,1715781900050,0.03,0.96,-0.01,-3.3,-35.34,-80.57
345,1715781900060,0.03,0.96,-0.01,-3.3,-35.34,-80.57
346,1715781900070,0.03,0.96,-0.01,-3.3,-35.34,-80.57
347,1715781900080,0.03866666666666666,0.9599999999999999,-0.0035,-2.085,-33.265,-79.19599999999998
348,1715781900090,0.07,0.96,0.02,8.85,-14.59,-66.83
349,1715781900100,0.07,0.96,0.02,8.85,-14.59,-66.83
350,1715781900110,0.07,0.96,0.02,8.85,-14.59,-66.83
351,1715781900120,0.02811538461538462,1.0111923076923077,-0.007923076923076923,8.85,-0.44326923076923036,-59.82280769230769
352,1715781900130,-0.02,1.07,-0.04,8.85,24.96,-47.24
353,1715781900140,-0.02,1.07,-0.04,8.85,24.96,-47.24
354,1715781900150,-0.020000000000000004,1.07,-0.04000000000000001,8.85,24.96,-47.24
355,1715781900160,-0.019999999999999997,1.07,-0.039999999999999994,8.85,24.96,-47.24
356,1715781900170,-0.06372881355932204,1.0408474576271187,-0.04,9.29199152542373,35.84313559322034,-38.92911016949153
357,1715781900180,-0.08,1.03,-0.04,9.46,39.98,-35.77
358,1715781900190,-0.08,1.03,-0.04,9.46,39.98,-35.77
359,1715781900200,-0.22273858921161827,1.1102904564315355,-0.08460580912863071,3.3027385892116183,31.84390041493776,-18.92228215767635
360,1715781900210,-0.24,1.12,-0.09,1.65,29.66,-14.4
361,1715781900220,-0.24,1.12,-0.09,1.65,29.659999999999997,-14.4
362,1715781900230,-0.24,1.12,-0.09,1.65,29.66,-14.4
363,1715781900240,-0.21267441860465117,1.0744573643410855,-0.04445736434108527,1.3016666666666665,14.284728682170543,2.700736434108527
364,1715781900250,-0.21,1.07,-0.04,1.22,10.68,6.71
365,1715781900260,-0.21,1.07,-0.04,1.22,10.68,6.71
366,1715781900270,-0.19558823529411762,1.0681985294117649,-0.03819852941176471,0.8744117647058823,10.720441176470588,8.532058823529411
367,1715781900280,-0.13,1.06,-0.03,-3.48,11.23,31.49
368,1715781900290,-0.13,1.06,-0.03,-3.48,11.23,31.49
369,1715781900300,-0.13,1.06,-0.03,-3.48,11.23,31.49
370,1715781900310,-0.11789699570815451,1.0519313304721032,-0.0259656652360515,-3.48,11.23,31.490000000000002
371,1715781900320,-0.07,1.02,-0.01,-0.5053333333333334,8.354235294117647,45.47321568627451
372,1715781900330,-0.07,1.02,-0.01,0.43,7.45,49.87
373,1715781900340,-0.07,1.02,-0.01,0.43,7.45,49.87
374,1715781900350,-0.05800000000000001,0.9960000000000001,-0.016,2.190652173913043,10.635000000000002,57.838434782608694
375,1715781900360,-0.05,0.9799999999999999,-0.02,4.88,15.5,70.01
376,1715781900370,-0.05,0.98,-0.02,4.88,15.5,70.01
377,1715781900380,-0.05,0.98,-0.02,4.88,15.5,70.01
378,1715781900390,-0.03398467432950191,0.9399616858237548,-0.04402298850574713,-0.9816091954022989,14.25896551724138,86.10137931034483
379,1715781900400,-0.03,0.93,-0.05,-3.48,13.73,92.96
380,1715781900410,-0.03,0.93,-0.05,-3.48,13.73,92.96
381,1715781900420,-0.03,0.93,-0.05,-3.48,13.73,92.96
382,1715781900430,-0.03,0.93,-0.05,-3.48,13.73,92.96
383,1715781900440,0.05696629213483146,0.8526966292134831,-0.02101123595505618,-4.06943820224719,-2.957865168539326,105.63775280898876
384,1715781900450,0.06,0.85,-0.02,-4.09,-3.54,106.08
385,1715781900460,0.09067415730337079,0.8227340823970037,-0.006367041198501872,-4.2202247191011235,-3.2923595505617977,110.83640449438202
386,1715781900470,0.15,0.77,0.02,-4.7,-2.38,128.36
387,1715781900480,0.15,0.77,0.02,-4.7,-2.3799999999999994,128.36
388,1715781900490,0.15,0.77,0.02,-4.7,-2.38,128.36
389,1715781900500,0.18283464566929133,0.7481102362204725,0.0035826771653543307,-4.879724409448819,-1.184015748031496,132.18976377952757
390,1715781900510,0.21,0.73,-0.01,-5.25,1.28,140.08
391,1715781900520,0.21,0.73,-0.01,-5.25,1.28,140.08
392,1715781900530,0.21,0.73,-0.01,-5.25,1.28,140.08
393,1715781900540,0.32813043478260867,0.6118695652173912,0.0024347826086956524,-6.120434782608696,-5.216608695652174,151.35608695652175
394,1715781900550,0.4,0.54,0.01,-7.45,-15.14,168.58
395,1715781900560,0.4,0.54,0.01,-7.45,-15.14,168.58
396,1715781900570,0.4,0.54,0.01,-7.45,-15.14,168.58
397,1715781900580,0.44511278195488724,0.5456390977443609,-0.006917293233082707,-8.099774436090225,-46.86691729323309,158.59812030075187
398,1715781900590,0.48,0.55,-0.02,-8.61,-71.78,150.76
399,1715781900600,0.48,0.55,-0.02,-8.61,-71.78,150.76
400,1715781900610,0.48,0.55,-0.02,-8.61,-71.78,150.76
401,1715781900620,0.7819607843137254,0.25666666666666665,0.05764705882352942,13.239098039215687,-27.381882352941176,176.91686274509803
402,1715781900630,0.83,0.21,0.07,21.67,-10.25,187.01
403,1715781900640,0.83,0.21,0.07,21.67,-10.25,187.01
404,1715781900650,0.8287786259541984,0.21259541984732822,0.06709923664122137,21.67,-10.25,187.01
405,1715781900660,0.75,0.38,-0.12,21.5716091954023,-58.141724137931035,165.04425287356324
406,1715781900670,0.75,0.38,-0.12,21.55,-68.66,160.22
407,1715781900680,0.75,0.38,-0.12,21.55,-68.66,160.22
408,1715781900690,0.7597338403041826,0.3684410646387833,-0.11604562737642585,21.55,-68.66,160.22
409,1715781900700,1.07,0.0,0.01,36.788854961832065,-0.8691603053435112,168.35114503816794
410,1715781900710,1.07,0.0,0.01,37.78,3.54,168.88
411,1715781900720,1.07,0.0,0.01,37.78,3.54,168.88
412,1715781900730,1.0346718146718148,0.042393822393822396,-0.03003861003861004,38.98285714285714,10.541428571428572,167.78142857142856
413,1715781900740,0.92,0.18,-0.16,46.2,52.55,161.19
414,1715781900750,0.92,0.18,-0.16,46.2,52.55,161.19
415,1715781900760,0.92,0.18,-0.16,46.2,52.55,161.19
416,1715781900770,0.9122097378277154,0.09820224719101123,-0.15220973782771535,35.41438202247191,43.85022471910113,157.3747191011236
417,1715781900780,0.9,-0.03,-0.14,9.28,22.77,148.13
418,1715781900790,0.9,-0.029999999999999995,-0.14,9.28,22.77,148.13
419,1715781900800,0.9,-0.03,-0.14,9.28,22.77,148.13
420,1715781900810,0.9882129277566541,-0.09064638783269963,-0.12346007604562738,9.28,22.77,148.13
421,1715781900820,1.06,-0.14,-0.11,9.28,22.77,148.13
422,1715781900830,1.06,-0.14,-0.11,9.00319248826291,31.31798122065728,151.86483568075116
423,1715781900840,1.06,-0.14,-0.11,8.61,43.46,157.17
424,1715781900850,0.9318287937743192,-0.0901556420233463,-0.11,6.995369649805447,34.26902723735408,150.88225680933851
425,1715781900860,0.88,-0.07,-0.11,5.49,25.7,145.02
426,1715781900870,0.88,-0.07,-0.11,5.49,25.7,145.02
427,1715781900880,0.8800000000000001,-0.07,-0.11000000000000001,5.49,25.7,145.02
428,1715781900890,0.9865,-0.24203846153846156,-0.06084615384615385,-1.8389615384615385,44.26334615384615,158.0165
429,1715781900900,1.01,-0.28,-0.05,-4.7,51.51,163.09
430,1715781900910,1.01,-0.28,-0.05,-4.7,51.51,163.09
431,1715781900920,1.01,-0.28,-0.05,-4.7,51.51,163.09
432,1715781900930,0.9603225806451613,-0.2644758064516129,-0.043790322580645163,-5.967741935483871,48.04870967741935,160.88870967741937
433,1715781900940,0.85,-0.23,-0.03,-24.35,-2.14,128.97
434,1715781900950,0.85,-0.23,-0.03,-24.35,-2.14,128.97
435,1715781900960,0.9312408759124088,-0.30737226277372265,-0.008722627737226277,-24.35,-2.14,128.97
436,1715781900970,1.27,-0.63,0.08,-14.777169811320753,34.18603773584906,144.24849056603773
437,1715781900980,1.27,-0.63,0.08,-12.27,43.7,148.25
438,1715781900990,1.27,-0.63,0.08,-12.27,43.7,148.25
439,1715781901000,1.2218072289156627,-0.5818072289156627,0.04987951807228916,-12.502931726907631,38.90883534136547,144.6355421686747
440,1715781901010,1.03,-0.39,-0.07,-13.43,19.84,130.25
441,1715781901020,1.03,-0.39,-0.07,-13.43,19.84,130.25
442,1715781901030,1.03,-0.39,-0.07,-13.43,19.84,130.25
443,1715781901040,1.1460159362549802,-0.5143027888446216,-0.003705179282868531,-15.42183266932271,20.331235059760957,127.72211155378486
444,1715781901050,1.31,-0.69,0.09,-24.54,22.58,116.15
445,1715781901060,1.3100000000000003,-0.69,0.08999999999999998,-24.539999999999996,22.58,116.15
446,1715781901070,1.31,-0.69,0.09,-24.54,22.58,116.15
447,1715781901080,1.2207569721115537,-0.6286454183266932,0.07884462151394422,-16.001354581673304,18.97832669322709,107.83390438247012
448,1715781901090,1.15,-0.58,0.07,-5.74,14.65,97.84
449,1715781901100,1.15,-0.58,0.07,-5.74,14.65,97.84
450,1715781901110,1.15,-0.58,0.07,-5.74,14.65,97.84
451,1715781901120,1.22507299270073,-0.6414233576642335,0.0972992700729927,-8.831642335766423,30.69237226277372,84.72394160583941
452,1715781901130,1.26,-0.67,0.11,-11.35,43.76,74.04
453,1715781901140,1.26,-0.67,0.11,-11.35,43.76,74.04
454,1715781901150,1.26,-0.67,0.11,-11.35,43.76,74.04
455,1715781901160,1.159322033898305,-0.6196610169491525,0.06805084745762711,-8.378728813559322,22.51872881355932,64.22669491525424
456,1715781901170,1.14,-0.61,0.06,-7.32,14.95,60.73
457,1715781901180,1.14,-0.61,0.06,-7.32,14.95,60.72999999999999
458,1715781901190,1.14275,-0.6132083333333332,0.06183333333333333,-7.320000000000001,14.95,60.73
459,1715781901200,1.2,-0.68,0.1,-5.16593023255814,9.923837209302325,32.803682170542636
460,1715781901210,1.2,-0.68,0.1,-5.07,9.7,31.56
461,1715781901220,1.2,-0.68,0.1,-5.07,9.7,31.560000000000002
462,1715781901230,1.176492537313433,-0.6611940298507464,0.09294776119402985,-4.168470149253731,8.630037313432835,28.769813432835818
463,1715781901240,1.1,-0.6,0.07,1.46,1.95,11.35
464,1715781901250,1.1,-0.6,0.07,1.46,1.95,11.35
465,1715781901260,1.1,-0.6,0.07,1.46,1.95,11.35
466,1715781901270,1.066178861788618,-0.6042276422764227,0.053089430894308946,1.6173577235772358,2.460609756097561,8.350569105691056
467,1715781901280,1.02,-0.61,0.03,1.95,3.54,2.01
468,1715781901290,1.02,-0.61,0.03,1.95,3.54,2.01
469,1715781901300,1.02,-0.61,0.03,1.95,3.54,2.01
470,1715781901310,1.0139330543933054,-0.6282008368200838,0.04820083682008368,-1.9234309623430963,-5.477154811715481,-6.477866108786611
471,1715781901320,1.01,-0.64,0.05999999999999999,-6.1,-15.2,-15.629999999999999
472,1715781901330,1.01,-0.6400000000000001,0.06,-6.1,-15.2,-15.63
473,1715781901340,1.01,-0.64,0.06,-6.1,-15.2,-15.63
474,1715781901350,0.9635338345864662,-0.64,0.05225563909774436,0.42330827067669186,-3.9263157894736835,-23.019473684210528
475,1715781901360,0.95,-0.64,0.05,3.54,1.46,-26.55
476,1715781901370,0.95,-0.64,0.05,3.54,1.46,-26.55
477,1715781901380,0.9507438016528925,-0.63900826446281,0.04950413223140496,3.5400000000000005,1.46,-26.55
478,1715781901390,0.98,-0.6,0.03,3.54,1.46,-26.55
479,1715781901400,0.98,-0.6,0.03,3.54,1.46,-26.55
480,1715781901410,0.98,-0.6,0.03,3.54,1.46,-26.55
481,1715781901420,0.98,-0.6,0.03,3.54,1.46,-26.55
482,1715781901430,0.9799999999999999,-0.6,0.030000000000000002,3.54,1.46,-26.55
483,1715781901440,0.98,-0.6,0.029999999999999995,3.54,1.46,-26.55
484,1715781901450,0.98,-0.6,0.029999999999999995,3.54,1.46,-26.55
485,1715781901460,0.98,-0.6,0.03,3.5399999999999996,1.46,-26.55
486,1715781901470,1.1370731707317072,-0.6523577235772359,0.015040650406504066,1.6170325203252034,-2.2439024390243905,-58.39333333333333
487,1715781901480,1.19,-0.6700000000000002,0.010000000000000002,0.98,-3.42,-69.09
488,1715781901490,1.19,-0.67,0.01,0.98,-3.42,-69.09
489,1715781901500,1.1968320610687022,-0.6085114503816794,0.01683206106870229,0.98,-3.42,-69.09
490,1715781901510,1.2,-0.58,0.02,1.33900826446281,-2.2537190082644627,-69.80867768595041
491,1715781901520,1.2,-0.58,0.02,6.41,14.22,-79.96
492,1715781901530,1.2,-0.58,0.02,6.41,14.22,-79.96
493,1715781901540,1.2,-0.58,0.02,6.41,14.22,-79.96
494,1715781901550,1.2,-0.58,0.02,1.1913953488372093,9.885658914728682,-95.39837209302326
495,1715781901560,1.2,-0.58,0.02,-0.79,8.24,-101.26
496,1715781901570,1.2162698412698412,-0.5734920634920635,0.03626984126984127,-0.166984126984127,7.350119047619048,-103.16079365079365
497,1715781901580,1.25,-0.56,0.07,5.49,-0.73,-120.42
498,1715781901590,1.25,-0.56,0.07,5.49,-0.73,-120.42
499,1715781901600,1.25,-0.56,0.07,5.49,-0.73,-120.42
500,1715781901610,1.1889387755102039,-0.5155918367346939,0.04224489795918368,6.790285714285714,3.941061224489796,-125.1227755102041
501,1715781901620,1.14,-0.48,0.02,8.36,9.58,-130.8
502,1715781901630,1.14,-0.4799999999999999,0.02,8.36,9.58,-130.8
503,1715781901640,1.14,-0.48,0.02,8.36,9.58,-130.8
504,1715781901650,1.1928225806451613,-0.46943548387096773,0.04641129032258065,6.65383064516129,-3.990120967741935,-143.5038306451613
505,1715781901660,1.24,-0.46,0.07,5.13,-16.11,-154.85
506,1715781901670,1.24,-0.46,0.07,5.13,-16.11,-154.85
507,1715781901680,1.24,-0.46,0.07,5.13,-16.11,-154.85
508,1715781901690,1.1791176470588234,-0.3991176470588235,0.022647058823529412,9.134705882352943,10.150588235294117,-156.29088235294117
509,1715781901700,1.15,-0.37,0.0,11.05,22.71,-156.98
510,1715781901710,1.15,-0.37,0.0,11.05,22.71,-156.98
511,1715781901720,1.15,-0.37,0.0,11.05,22.71,-156.98
512,1715781901730,1.1113513513513513,-0.32030888030888033,0.011042471042471042,2.3209266409266416,1.613359073359074,-167.83474903474902
513,1715781901740,1.08,-0.28,0.02,-4.76,-15.5,-176.64
514,1715781901750,1.08,-0.28,0.02,-4.76,-15.5,-176.64
515,1715781901760,1.1177528089887643,-0.261123595505618,0.02,9.69932584269663,0.5732584269662921,-174.50696629213482
516,1715781901770,1.12,-0.26,0.02,10.56,1.53,-174.38
517,1715781901780,1.12,-0.26,0.02,10.56,1.53,-174.38
518,1715781901790,1.0675536480686696,-0.19545064377682403,0.011931330472103005,8.14802575107296,2.17274678111588,-176.5961373390558
519,1715781901800,0.9899999999999999,-0.1,0.0,-3.85,5.37,-187.62
520,1715781901810,0.9899999999999999,-0.1,0.0,-3.8499999999999996,5.37,-187.62
521,1715781901820,0.99,-0.1,0.0,-3.85,5.37,-187.62
522,1715781901830,0.9632608695652173,-0.07326086956521739,0.02673913043478261,-5.588913043478261,3.428695652173913,-187.49608695652174
523,1715781901840,0.94,-0.05,0.05,-8.06,0.67,-187.32
524,1715781901850,0.94,-0.05,0.05,-8.06,0.67,-187.32
525,1715781901860,0.91192,-0.0032,0.04064,-7.237360000000001,2.04956,-186.87591999999998
526,1715781901870,0.88,0.05,0.029999999999999995,-5.8,4.46,-186.1
527,1715781901880,0.88,0.05,0.03,-5.8,4.46,-186.1
528,1715781901890,0.88,0.05,0.03,-5.8,4.46,-186.1
529,1715781901900,0.7879518072289157,0.14971887550200805,0.045341365461847395,-6.368353413654619,4.928192771084337,-185.67373493975904
530,1715781901910,0.76,0.18,0.05,-8.24,6.47,-184.27
531,1715781901920,0.76,0.18,0.05,-8.24,6.47,-184.27
532,1715781901930,0.76,0.18,0.05,-8.24,6.47,-184.27
533,1715781901940,0.7254411764705883,0.2231985294117647,0.09319852941176471,-2.405294117647059,8.052941176470586,-181.50941176470587
534,1715781901950,0.72,0.23,0.1,-0.61,8.54,-180.66
535,1715781901960,0.7028571428571428,0.2571428571428572,0.09428571428571429,-0.5106593406593406,8.966813186813186,-180.3676923076923
536,1715781901970,0.6,0.42,0.06,1.65,18.25,-174.01
537,1715781901980,0.6,0.42,0.06,1.65,18.25,-174.01
538,1715781901990,0.6,0.42,0.06,1.65,18.25,-174.01
539,1715781902000,0.5978048780487805,0.4210975609756098,0.06548780487804878,0.9728048780487805,16.387439024390243,-174.4259756097561
540,1715781902010,0.58,0.43,0.11,-4.52,1.28,-177.8
541,1715781902020,0.58,0.43,0.11,-4.52,1.28,-177.8
542,1715781902030,0.58,0.43,0.11,-4.52,1.28,-177.8
543,1715781902040,0.58,0.43,0.11,-4.52,1.28,-177.8
544,1715781902050,0.55416,0.45312,0.10592,-2.4093199999999997,5.0024,-175.42268
545,1715781902060,0.39,0.6,0.08,11.47,29.48,-159.79
546,1715781902070,0.39,0.6,0.08,11.47,29.48,-159.79
547,1715781902080,0.29931451612903226,0.6348790322580645,0.06604838709677419,12.89766129032258,39.43298387096774,-148.5008064516129
548,1715781902090,0.26,0.65,0.060000000000000005,14.28,49.07,-137.57
549,1715781902100,0.26,0.65,0.06,14.28,49.07,-137.57
550,1715781902110,0.26,0.65,0.06,14.28,49.07,-137.57
551,1715781902120,0.22237154150197627,0.7816996047430831,-0.015256916996047433,15.069090909090908,28.44213438735178,-125.6392885375494
552,1715781902130,0.22,0.79,-0.02,15.2,25.02,-123.66
553,1715781902140,0.22,0.79,-0.02,15.2,25.02,-123.66
554,1715781902150,0.22366795366795367,0.7863320463320463,-0.014131274131274131,15.2,25.02,-123.66
555,1715781902160,0.27,0.74,0.06,13.757946768060837,-1.084106463878327,-118.50980988593155
556,1715781902170,0.27,0.74,0.06,13.73,-1.59,-118.41
557,1715781902180,0.27,0.74,0.06,13.73,-1.59,-118.41
558,1715781902190,0.27252000000000004,0.7651999999999999,0.05244,15.26792,2.27784,-115.69416
559,1715781902200,0.28,0.84,0.03,24.41,25.27,-99.55
560,1715781902210,0.28,0.84,0.03,24.41,25.27,-99.55
561,1715781902220,0.2383794466403162,0.8677470355731225,0.00225296442687747,24.797509881422922,26.883122529644268,-99.33071146245058
562,1715781902230,0.19,0.9,-0.029999999999999995,25.7,30.64,-98.82
563,1715781902240,0.19,0.9,-0.03,25.7,30.64,-98.82
564,1715781902250,0.19,0.9,-0.03,25.7,30.64,-98.82
565,1715781902260,0.15704280155642023,0.9209727626459144,-0.03,23.61634241245136,29.53863813229572,-98.89143968871595
566,1715781902270,0.08,0.97,-0.03,15.2,25.09,-99.18
567,1715781902280,0.08,0.97,-0.03,15.2,25.09,-99.18
568,1715781902290,0.08,0.9699999999999999,-0.029999999999999995,15.200000000000001,25.09,-99.18
569,1715781902300,-0.12511627906976744,0.9895348837209302,-0.0006976744186046512,13.848488372093023,34.962906976744186,-92.6591472868217
570,1715781902310,-0.13,0.99,0.0,13.43,38.02,-90.64
571,1715781902320,-0.13,0.99,0.0,13.43,38.02,-90.64
572,1715781902330,-0.13,0.99,0.0,13.43,38.02,-90.64
573,1715781902340,-0.36906614785992214,1.0398054474708172,-0.06972762645914397,16.61112840466926,38.541245136186774,-74.3127626459144
574,1715781902350,-0.37,1.04,-0.07,17.58,38.7,-69.34
575,1715781902360,-0.37,1.04,-0.07,17.58,38.7,-69.34
576,1715781902370,-0.38074380165289257,1.057190082644628,-0.08933884297520661,18.072066115702476,34.38528925619835,-65.5098347107438
577,1715781902380,-0.42,1.12,-0.16,22.16,-1.46,-33.69
578,1715781902390,-0.42,1.12,-0.16,22.16,-1.46,-33.69
579,1715781902400,-0.42,1.12,-0.16,22.16,-1.46,-33.69
580,1715781902410,-0.3810902255639098,1.117406015037594,-0.1418421052631579,14.938345864661654,-3.17203007518797,-23.35296992481203
581,1715781902420,-0.27,1.11,-0.09,-5.68,-8.06,6.16
582,1715781902430,-0.27,1.11,-0.09,-5.68,-8.06,6.16
583,1715781902440,-0.27,1.11,-0.09,-5.68,-8.06,6.16
584,1715781902450,-0.14863468634686347,1.078339483394834,-0.04250922509225092,-7.548265682656826,-12.470332103321033,12.162952029520296
585,1715781902460,-0.04,1.05,0.0,-11.78,-22.46,25.76
586,1715781902470,-0.04,1.05,0.0,-11.78,-22.46,25.76
587,1715781902480,-0.04,1.05,0.0,-11.78,-22.46,25.76
588,1715781902490,-0.0128,1.0432,0.054400000000000004,-8.391854545454544,-8.861163636363637,25.61738181818182
589,1715781902500,0.0,1.04,0.08,-2.99,12.82,25.39
590,1715781902510,0.0,1.04,0.08,-2.99,12.82,25.39
591,1715781902520,0.0,1.04,0.08,-2.99,12.82,25.39
592,1715781902530,-0.10628571428571429,1.048857142857143,0.026857142857142857,4.076163265306123,46.28383673469387,39.0969387755102
593,1715781902540,-0.12,1.05,0.02,5.98,55.3,42.79
594,1715781902550,-0.11999999999999998,1.05,0.02,5.98,55.3,42.79
595,1715781902560,-0.12,1.05,0.02,5.98,55.3,42.79
596,1715781902570,-0.19824561403508772,0.9913157894736843,-0.06802631578947368,5.386052631578948,48.825,68.3978947368421
597,1715781902580,-0.2,0.99,-0.07,5.37,48.65,69.09
598,1715781902590,-0.2,0.99,-0.07,5.37,48.65,69.09
599,1715781902600,-0.168,0.982,-0.074,5.370000000000001,48.65,69.09
600,1715781902610,-0.11999999999999998,0.97,-0.08,-9.797269372693727,-9.04678966789668,85.30856088560886
601,1715781902620,-0.12,0.97,-0.08,-10.5,-11.719999999999999,86.06
602,1715781902630,-0.12,0.97,-0.08,-10.5,-11.72,86.06
603,1715781902640,-0.06415384615384616,0.9192307692307692,-0.07492307692307693,-18.067615384615383,-26.51784615384615,96.26
604,1715781902650,-0.01,0.87,-0.07,-29.79,-49.44,112.06
605,1715781902660,-0.01,0.87,-0.07,-29.79,-49.44,112.06
606,1715781902670,-0.01,0.87,-0.07,-29.79,-49.44,112.06
607,1715781902680,0.10895652173913042,0.8030869565217391,-0.04769565217391305,-33.90673913043479,-73.33347826086957,123.10521739130435
608,1715781902690,0.15,0.78,-0.04,-36.32,-87.34,129.58
609,1715781902700,0.15,0.78,-0.04,-36.32,-87.34,129.58
610,1715781902710,0.15,0.78,-0.04,-36.32,-87.34,129.58
611,1715781902720,0.2770161290322581,0.6953225806451613,-0.04,-28.166129032258063,-67.20854838709678,138.27197580645162
612,1715781902730,0.3,0.68,-0.04,-23.44,-55.54,143.31
613,1715781902740,0.3,0.68,-0.04,-23.44,-55.54,143.31
614,1715781902750,0.3,0.6799999999999999,-0.04,-23.44,-55.54,143.31
615,1715781902760,0.33299999999999996,0.668,-0.016,-23.44,-55.54,143.31
616,1715781902770,0.41,0.64,0.04,-23.44,-55.54,143.31
617,1715781902780,0.41,0.64,0.04,-21.731,-49.614,144.482
618,1715781902790,0.4165560165975104,0.5973858921161825,0.023609958506224066,-6.442365145228216,8.848464730290457,156.8553112033195
619,1715781902800,0.43,0.51,-0.01,-6.77,27.04,163.32999999999998
620,1715781902810,0.43,0.51,-0.01,-6.77,27.04,163.33
621,1715781902820,0.43,0.51,-0.01,-6.77,27.04,163.33
622,1715781902830,0.5271428571428571,0.4757142857142857,0.04142857142857143,-8.153673469387755,18.451999999999998,167.52253061224488
623,1715781902840,0.6,0.45,0.08,-9.77,8.42,172.42
624,1715781902850,0.6,0.45,0.08,-9.77,8.42,172.42
625,1715781902860,0.6,0.45,0.08,-9.77,8.42,172.42
626,1715781902870,0.6181395348837209,0.39558139534883724,0.04976744186046512,-14.492325581395347,-13.02093023255814,166.04093023255814
627,1715781902880,0.63,0.36,0.03,-17.58,-27.04,161.86999999999998
628,1715781902890,0.63,0.36,0.030000000000000002,-17.58,-27.04,161.87
629,1715781902900,0.63,0.36,0.03,-17.58,-27.04,161.87
630,1715781902910,1.0091666666666668,0.0969047619047619,0.16154761904761905,0.6642857142857154,4.2735714285714295,166.81357142857144
631,1715781902920,1.12,0.02,0.2,10.8,21.67,169.56
632,1715781902930,1.12,0.02,0.2,10.8,21.67,169.56
633,1715781902940,1.12,0.02,0.2,10.8,21.67,169.56
634,1715781902950,0.8342857142857143,0.1292436974789916,-0.052100840336134456,-6.27563025210084,-8.237563025210084,152.68605042016807
635,1715781902960,0.78,0.15,-0.1,-9.52,-13.92,149.48
636,1715781902970,0.78,0.15,-0.1,-9.52,-13.92,149.48
637,1715781902980,0.8818320610687023,0.08801526717557251,-0.03801526717557252,-8.876259541984732,-14.278282442748091,149.20931297709922
638,1715781902990,1.24,-0.13,0.18,9.22,-24.35,141.6
639,1715781903000,1.24,-0.13,0.18,9.22,-24.35,141.6
640,1715781903010,1.24,-0.13,0.18,9.22,-24.35,141.6
641,1715781903020,1.1023938223938223,-0.036177606177606174,0.08617760617760618,11.734285714285713,-12.802123552123552,143.3880308880309
642,1715781903030,0.8,0.17,-0.12,21.06,30.03,150.02
643,1715781903040,0.8,0.17,-0.12,21.06,30.03,150.02
644,1715781903050,0.8,0.17,-0.12,21.06,30.03,150.02
645,1715781903060,,,,,,
646,1715781903070,,,,,,
647,1715781903080,,,,,,
648,1715781903090,1.16,-0.22,0.1,3.7872093023255813,-27.17740310077519,154.83127906976745
649,1715781903100,1.099430894308943,-0.11703252032520325,0.039430894308943094,15.477113821138213,-4.717886178861788,148.6558943089431
650,1715781903110,1.06,-0.05,0.0,28.87,21.12,141.6
651,1715781903120,1.06,-0.05,0.0,28.87,21.12,141.6
652,1715781903130,1.06,-0.05,0.0,28.87,21.12,141.6
653,1715781903140,0.947136929460581,-0.1275933609958506,-0.06348547717842323,-0.23456431535269723,21.035352697095437,135.2726141078838
654,1715781903150,0.9,-0.16,-0.09,-12.39,21.0,132.63
655,1715781903160,0.9,-0.16,-0.09,-12.39,21.0,132.63
656,1715781903170,0.9,-0.16,-0.09,-12.39,21.0,132.63
657,1715781903180,1.0554878048780487,-0.3154878048780488,0.046829268292682934,2.3004878048780486,11.43439024390244,140.44792682926828
658,1715781903190,1.15,-0.41,0.13,11.23,5.62,145.2
659,1715781903200,1.15,-0.41,0.13,11.23,5.62,145.2
660,1715781903210,1.15,-0.41,0.13,11.23,5.62,145.2
661,1715781903220,1.1137735849056605,-0.32849056603773585,-0.01490566037735849,-5.003962264150943,22.566452830188677,126.15215094339622
662,1715781903230,1.11,-0.32,-0.03,-6.77,24.41,124.07999999999998
663,1715781903240,1.11,-0.32,-0.03,-6.77,24.41,124.08
664,1715781903250,1.2577777777777779,-0.43822222222222224,0.0635925925925926,-4.045703703703704,20.463333333333335,121.38859259259259
665,1715781903260,1.41,-0.56,0.16,3.17,10.01,114.26
666,1715781903270,1.41,-0.56,0.16,3.17,10.01,114.26
667,1715781903280,1.41,-0.56,0.16,3.17,10.01,114.26
668,1715781903290,1.2984507042253521,-0.44845070422535216,0.05352112676056338,3.843943661971831,29.680985915492958,105.85816901408451
669,1715781903300,1.19,-0.34,-0.05,4.82,58.17,93.69
670,1715781903310,1.19,-0.34,-0.05,4.82,58.17,93.69
671,1715781903320,1.19,-0.34,-0.05,4.82,58.17,93.69
672,1715781903330,1.298,-0.4734117647058824,0.06435294117647058,-3.905333333333333,21.060666666666666,78.06333333333333
673,1715781903340,1.36,-0.55,0.13,-11.54,-11.41,64.39
674,1715781903350,1.36,-0.55,0.13,-11.54,-11.41,64.39
675,1715781903360,1.36,-0.55,0.13,-11.54,-11.41,64.39
676,1715781903370,1.22875,-0.409375,0.045625000000000006,-2.348,13.82,55.384
677,1715781903380,1.22,-0.4,0.04,3.78,30.639999999999997,49.38
678,1715781903390,1.22,-0.4,0.04,3.7800000000000002,30.64,49.38
679,1715781903400,1.22,-0.4,0.04,3.78,30.64,49.38
680,1715781903410,1.1655555555555555,-0.47259259259259256,0.06722222222222222,-9.135277777777778,0.13444444444444517,28.240185185185187
681,1715781903420,1.16,-0.48,0.07,-12.63,-8.12,22.52
682,1715781903430,1.16,-0.48,0.07,-12.63,-8.12,22.52
683,1715781903440,1.16,-0.48,0.07,-12.63,-8.12,22.52
684,1715781903450,1.1217543859649124,-0.489561403508772,0.08912280701754387,-5.663157894736841,-7.244385964912281,15.258114035087718
685,1715781903460,1.12,-0.49000000000000005,0.09,-5.31,-7.2,14.890000000000002
686,1715781903470,1.12,-0.49000000000000005,0.09,-5.31,-7.2,14.89
687,1715781903480,1.1168163265306124,-0.4995510204081633,0.08840816326530612,-5.462653061224489,-6.268122448979592,13.759673469387756
688,1715781903490,1.1,-0.55,0.08,-7.51,6.23,-1.4
689,1715781903500,1.1,-0.55,0.08,-7.51,6.23,-1.4
690,1715781903510,1.1,-0.55,0.08,-7.51,6.23,-1.4
691,1715781903520,1.0663414634146342,-0.5387804878048781,0.09121951219512196,-5.307845528455284,5.012032520325203,-4.730650406504065
692,1715781903530,1.01,-0.52,0.11,0.12,2.01,-12.94
693,1715781903540,1.01,-0.52,0.11,0.12,2.01,-12.94
694,1715781903550,1.01,-0.52,0.11,0.12,2.01,-12.94
695,1715781903560,1.0040304182509505,-0.5020912547528518,0.09209125475285171,1.3025095057034222,2.9149429657794674,-15.932395437262356
696,1715781903570,1.0,-0.49,0.08,3.23,4.39,-20.81
697,1715781903580,1.0,-0.49,0.08,3.23,4.39,-20.81
698,1715781903590,1.0,-0.49,0.08,3.23,4.39,-20.81
699,1715781903600,1.0149407114624507,-0.4825296442687747,0.06505928853754941,-0.2540316205533597,-4.776086956521739,-27.620592885375494
700,1715781903610,1.02,-0.48,0.06,-2.08,-9.58,-31.19
701,1715781903620,1.02,-0.48000000000000004,0.060000000000000005,-2.08,-9.58,-31.19
702,1715781903630,1.02,-0.48,0.06,-2.08,-9.58,-31.19
703,1715781903640,1.1082783882783882,-0.48,0.06,2.9446886446886444,5.917362637362637,-34.678278388278386
704,1715781903650,1.12,-0.48,0.06,4.33,10.19,-35.64
705,1715781903660,1.12,-0.48,0.06,4.33,10.19,-35.64
706,1715781903670,1.1204858299595144,-0.48008097165991903,0.05975708502024291,4.33,10.19,-35.64
707,1715781903680,1.18,-0.49000000000000005,0.03,-1.3440336134453779,-0.4063025210084033,-45.96781512605042
708,1715781903690,1.18,-0.49,0.03,-2.01,-1.65,-47.18
709,1715781903700,1.18,-0.49,0.03,-2.01,-1.65,-47.18
710,1715781903710,1.1823321554770316,-0.4896113074204947,0.0315547703180212,-1.723144876325088,-0.9736749116607772,-48.005583038869254
711,1715781903720,1.24,-0.48,0.07,5.37,15.75,-68.42
712,1715781903730,1.24,-0.48,0.07,5.37,15.75,-68.42
713,1715781903740,1.24,-0.48,0.07,5.37,15.75,-68.42
714,1715781903750,1.2381355932203388,-0.4772033898305084,0.07,5.37,15.75,-68.42
715,1715781903760,1.22,-0.45,0.07,-1.167442748091603,9.734007633587787,-85.74374045801527
716,1715781903770,1.22,-0.45,0.07,-1.4,9.52,-86.36
717,1715781903780,1.22,-0.45,0.07,-1.4,9.52,-86.36
718,1715781903790,1.2605474452554744,-0.4573722627737226,0.08843065693430657,0.2753284671532847,5.609051094890511,-93.04744525547446
719,1715781903800,1.33,-0.47,0.12,4.64,-4.58,-110.47
720,1715781903810,1.33,-0.47,0.12,4.64,-4.58,-110.47
721,1715781903820,1.33,-0.47,0.12,4.64,-4.58,-110.47
722,1715781903830,1.321015625,-0.457421875,0.1128125,6.273359375,0.6524999999999997,-113.43125
723,1715781903840,1.28,-0.4,0.08,13.73,24.54,-126.95
724,1715781903850,1.28,-0.4,0.08,13.73,24.54,-126.95
725,1715781903860,1.28,-0.4,0.08,13.73,24.54,-126.95
726,1715781903870,1.2383397683397683,-0.3711583011583012,0.07038610038610038,9.015984555984556,8.305328185328184,-135.96783783783783
727,1715781903880,1.15,-0.31,0.05,-0.98,-26.12,-155.09
728,1715781903890,1.15,-0.31,0.05,-0.98,-26.12,-155.09
729,1715781903900,1.15,-0.31,0.05,-0.98,-26.12,-155.09
730,1715781903910,1.26484375,-0.32640625,0.107421875,2.7840624999999997,-17.584257812500002,-156.1384375
731,1715781903920,1.29,-0.33,0.12,16.54,13.61,-159.97
732,1715781903930,1.29,-0.33,0.12,16.54,13.61,-159.97
733,1715781903940,1.2409803921568627,-0.29078431372549024,0.09450980392156862,16.54,13.61,-159.97
734,1715781903950,1.04,-0.13,-0.01,8.18,8.42,-176.21
735,1715781903960,1.04,-0.13,-0.01,8.18,8.42,-176.21
736,1715781903970,1.04,-0.13,-0.01,8.18,8.42,-176.21
737,1715781903980,1.044128787878788,-0.12174242424242425,0.023030303030303033,8.18,8.42,-176.21
738,1715781903990,1.05,-0.11,0.07,11.25479245283019,-1.0515471698113206,-184.71264150943395
739,1715781904000,1.05,-0.11,0.07,11.29,-1.16,-184.81
740,1715781904010,0.99,-0.044,0.064,12.91468085106383,6.055148936170213,-183.95263829787234
741,1715781904020,0.95,0.0,0.06,15.439999999999998,17.27,-182.62
742,1715781904030,0.9500000000000001,0.0,0.06,15.44,17.27,-182.62
743,1715781904040,0.95,0.0,0.05999999999999999,15.44,17.27,-182.62
744,1715781904050,0.8346613545816733,0.0999601593625498,0.029243027888446214,5.4336254980079675,-0.25286852589641456,-183.5972111553785
745,1715781904060,0.8,0.13,0.02,0.48999999999999994,-8.91,-184.08
746,1715781904070,0.8,0.13,0.02,0.49,-8.91,-184.08
747,1715781904080,0.8,0.13,0.02,0.49,-8.91,-184.08
748,1715781904090,0.7541353383458647,0.20338345864661656,0.0475187969924812,8.890375939849624,-3.255112781954887,-178.67917293233083
749,1715781904100,0.75,0.21,0.05,10.74,-2.01,-177.49
750,1715781904110,0.75,0.21,0.05,10.74,-2.01,-177.49
751,1715781904120,0.75,0.21,0.05,10.74,-2.01,-177.49
752,1715781904130,0.653399209486166,0.30660079051383404,0.03513833992094862,5.146561264822134,3.3714624505928854,-171.65039525691697
753,1715781904140,0.62,0.34,0.029999999999999995,2.56,5.86,-168.95
754,1715781904150,0.62,0.34,0.029999999999999995,2.56,5.86,-168.95
755,1715781904160,0.6298319327731092,0.35147058823529415,0.03491596638655462,2.56,5.86,-168.95
756,1715781904170,0.68,0.41,0.06,3.2577142857142856,-3.691142857142857,-159.85142857142858
757,1715781904180,0.68,0.41,0.06,3.2999999999999994,-4.27,-159.30000000000004
758,1715781904190,0.68,0.41,0.06,3.3,-4.27,-159.3
759,1715781904200,0.6416236162361624,0.44070110701107007,0.09070110701107012,5.798745387453875,-1.3618081180811807,-157.8809594095941
760,1715781904210,0.58,0.48999999999999994,0.14,12.21,6.1,-154.24
761,1715781904220,0.58,0.49,0.14,12.21,6.1,-154.24
762,1715781904230,0.58,0.49,0.14,12.21,6.1,-154.24000000000004
763,1715781904240,0.5539919354838709,0.516008064516129,0.10358870967741936,15.83241935483871,14.607016129032258,-149.34048387096774
764,1715781904250,0.53,0.54,0.07,24.35,34.61,-137.82
765,1715781904260,0.53,0.54,0.07,24.35,34.61,-137.82
766,1715781904270,0.53,0.54,0.07,24.35,34.61,-137.82
767,1715781904280,0.4217622950819673,0.6254508196721311,0.03581967213114754,25.2772131147541,22.42311475409836,-137.3150819672131
768,1715781904290,0.34,0.69,0.01,26.37,8.06,-136.72
769,1715781904300,0.34,0.69,0.01,26.37,8.06,-136.72
770,1715781904310,0.34,0.69,0.01,26.37,8.06,-136.72
771,1715781904320,0.33738317757009345,0.7030841121495326,0.015233644859813083,26.156074766355143,7.250560747663552,-136.687476635514
772,1715781904330,0.33,0.74,0.03,18.74,-20.81,-135.56
773,1715781904340,0.33,0.74,0.03,18.74,-20.81,-135.56
774,1715781904350,0.33,0.74,0.03,18.739999999999995,-20.81,-135.56
775,1715781904360,0.2937096774193548,0.7490725806451614,0.07536290322580645,26.731854838709676,-17.448790322580646,-133.3165322580645
776,1715781904370,0.29,0.75,0.08,28.75,-16.6,-132.75
777,1715781904380,0.29,0.75,0.08,28.75,-16.6,-132.75
778,1715781904390,0.2790804597701149,0.760191570881226,0.07344827586206897,28.75,-16.6,-132.75
779,1715781904400,0.14,0.89,-0.01,51.03076045627377,9.126539923954374,-114.81053231939163
780,1715781904410,0.14,0.89,-0.01,51.64,9.83,-114.32
781,1715781904420,0.14,0.89,-0.01,51.64,9.83,-114.32
782,1715781904430,0.13127906976744189,0.8987209302325582,-0.02046511627906977,50.56728682170543,8.669457364341085,-112.78937984496125
783,1715781904440,0.09,0.94,-0.07,39.06,-3.78,-96.37
784,1715781904450,0.09,0.94,-0.07,39.06000000000001,-3.7800000000000002,-96.37000000000002
785,1715781904460,0.09,0.94,-0.07,39.06,-3.78,-96.37
786,1715781904470,0.10338461538461538,0.9221538461538461,-0.09230769230769231,40.018076923076926,-5.4107692307692306,-95.69934615384616
787,1715781904480,0.12,0.9,-0.12,43.76,-11.78,-93.08
788,1715781904490,0.12,0.9,-0.12,43.76,-11.78,-93.08
789,1715781904500,0.12,0.9,-0.12,43.76,-11.78,-93.08
790,1715781904510,0.11738095238095238,0.9030952380952382,-0.1238095238095238,43.76,-11.78,-93.08
