id,timestamp,acc_x,acc_y,acc_z,gyro_x,gyro_y,gyro_z
0,1715781905670,1.09,-0.58,0.0,4.88,10.93,20.57
1,1715781905680,1.09,-0.58,0.0,4.88,10.93,20.57
2,1715781905690,1.09,-0.58,0.0,4.88,10.93,20.57
3,1715781905700,1.1045801526717558,-0.6310305343511451,0.021870229007633586,-0.5763358778625954,-2.85442748091603,7.222862595419848
4,1715781905710,1.11,-0.65,0.03,-3.48,-10.19,0.12
5,1715781905720,1.11,-0.65,0.03,-3.48,-10.19,0.12
6,1715781905730,1.11,-0.65,0.03,-3.48,-10.19,0.12
7,1715781905740,1.0523012552301256,-0.6005439330543934,0.02175732217573222,-0.3268200836820083,0.7952719665271969,-10.575774058577407
8,1715781905750,1.04,-0.59,0.02,0.55,3.85,-13.55
9,1715781905760,1.04,-0.59,0.02,0.55,3.85,-13.55
10,1715781905770,1.0334285714285714,-0.5909387755102041,0.021877551020408163,0.55,3.85,-13.55
11,1715781905780,0.97,-0.6,0.04,-5.241328125,1.9129687499999999,-26.7040234375
12,1715781905790,0.9699999999999999,-0.6,0.04,-5.31,1.8899999999999997,-26.86
13,1715781905800,0.97,-0.6,0.04,-5.31,1.89,-26.86
14,1715781905810,0.9547104247104248,-0.6076447876447876,0.06293436293436294,-4.2258301158301155,2.588687258687259,-29.11868725868726
15,1715781905820,0.93,-0.62,0.1,-1.71,4.21,-34.36
16,1715781905830,0.93,-0.62,0.1,-1.71,4.21,-34.36
17,1715781905840,0.93,-0.62,0.1,-1.71,4.21,-34.36
18,1715781905850,0.896390041493776,-0.603195020746888,0.07199170124481329,-0.7687551867219916,9.391244813278009,-34.95377593360996
19,1715781905860,0.87,-0.59,0.05,0.43,15.989999999999998,-35.71
20,1715781905870,0.87,-0.59,0.05,0.43,15.989999999999998,-35.71
21,1715781905880,0.87,-0.59,0.05,0.43,15.99,-35.71
22,1715781905890,0.9304938271604938,-0.6020987654320987,0.062098765432098774,-2.1997530864197534,7.023374485596708,-39.4416049382716
23,1715781905900,0.97,-0.61,0.07,-4.94,-2.32,-43.33
24,1715781905910,0.97,-0.61,0.07,-4.94,-2.32,-43.33
25,1715781905920,0.9700000000000001,-0.61,0.07,-4.94,-2.32,-43.33
26,1715781905930,1.023740157480315,-0.5869685039370078,0.06232283464566929,-1.1285433070866142,12.728779527559055,-47.45673228346457
27,1715781905940,1.04,-0.58,0.06,1.83,24.41,-50.66
28,1715781905950,1.04,-0.58,0.06,1.83,24.41,-50.66
29,1715781905960,1.04,-0.58,0.06,1.83,24.41,-50.66
30,1715781905970,1.162834645669291,-0.5705511811023621,0.06944881889763779,-0.8345669291338582,13.477874015748032,-64.70818897637795
31,1715781905980,1.17,-0.57,0.07,-1.77,9.64,-69.64
32,1715781905990,1.17,-0.57,0.07,-1.77,9.64,-69.64
33,1715781906000,1.176206896551724,-0.5689655172413793,0.07,-1.77,9.64,-69.64
34,1715781906010,1.23,-0.56,0.07,0.171875,24.836416666666665,-85.145125
35,1715781906020,1.23,-0.56,0.07,0.18,24.9,-85.21
36,1715781906030,1.23,-0.56,0.07,0.18,24.9,-85.21
37,1715781906040,1.2335632183908045,-0.557624521072797,0.07118773946360155,0.16528735632183908,24.709885057471265,-85.46114942528735
38,1715781906050,1.26,-0.54,0.08,-1.1,8.36,-107.06
39,1715781906060,1.26,-0.54,0.08,-1.1,8.36,-107.06
40,1715781906070,1.26,-0.54,0.08,-1.1,8.36,-107.06
41,1715781906080,1.2612992125984253,-0.5361023622047245,0.08519685039370078,-0.5920078740157481,8.431456692913384,-110.3028346456693
42,1715781906090,1.27,-0.51,0.12,2.81,8.91,-132.02
43,1715781906100,1.27,-0.51,0.12,2.81,8.91,-132.02
44,1715781906110,1.27,-0.51,0.12,2.81,8.91,-132.02
45,1715781906120,1.2625868725868725,-0.48034749034749036,0.12,3.0194208494208494,7.484826254826254,-133.9372200772201
46,1715781906130,1.25,-0.43,0.12,5.07,-6.47,-152.71
47,1715781906140,1.25,-0.43,0.12,5.07,-6.47,-152.71
48,1715781906150,1.25,-0.43,0.12,5.07,-6.47,-152.71
49,1715781906160,1.2259515570934256,-0.39633217993079584,0.10557093425605536,5.8876470588235295,2.0142906574394464,-155.26394463667822
50,1715781906170,1.2,-0.36,0.09,6.77,11.17,-158.02
51,1715781906180,1.2,-0.36,0.09,6.77,11.17,-158.02
52,1715781906190,1.2,-0.36,0.09,6.77,11.17,-158.02
53,1715781906200,1.1515325670498082,-0.32122605363984674,0.09969348659003832,7.778888888888889,-3.2153639846743296,-179.04141762452107
54,1715781906210,1.15,-0.32,0.1,7.93,-5.37,-182.19
55,1715781906220,1.15,-0.32,0.1,7.93,-5.37,-182.19
56,1715781906230,1.1549382716049381,-0.3035390946502058,0.10329218106995885,7.93,-5.37,-182.19
57,1715781906240,1.18,-0.22,0.12,7.243280632411067,13.688814229249012,-190.80691699604745
58,1715781906250,1.18,-0.22,0.12,7.2,14.89,-191.35
59,1715781906260,1.1613114754098361,-0.21311475409836064,0.1160655737704918,7.2,14.89,-191.35
60,1715781906270,0.99,-0.15,0.08,5.022358078602619,18.14056768558952,-191.29436681222708
61,1715781906280,0.99,-0.15,0.08,4.46,18.98,-191.28
62,1715781906290,0.99,-0.15,0.08,4.46,18.98,-191.28
63,1715781906300,0.9714545454545453,-0.1296,0.08,4.154,13.038036363636364,-192.94538181818183
64,1715781906310,0.89,-0.04,0.08,2.81,-13.06,-200.26
65,1715781906320,0.89,-0.04,0.08,2.81,-13.06,-200.26
66,1715781906330,0.89,-0.04,0.08,2.81,-13.06,-200.26
67,1715781906340,0.8444787644787645,0.0004633204633204633,0.09011583011583012,3.3428957528957532,-12.308378378378379,-195.16169884169884
68,1715781906350,0.8,0.04,0.1,4.15,-11.17,-187.44
69,1715781906360,0.8,0.04,0.1,4.15,-11.17,-187.44
70,1715781906370,0.8,0.04,0.1,4.15,-11.17,-187.44
71,1715781906380,0.7652892561983472,0.09454545454545454,0.08760330578512397,0.9714876033057854,-7.87,-182.73421487603306
72,1715781906390,0.66,0.26,0.05,-8.67,2.14,-168.46
73,1715781906400,0.66,0.26,0.05,-8.67,2.14,-168.46
74,1715781906410,0.66,0.26,0.05,-8.67,2.14,-168.46
75,1715781906420,0.6418450184501845,0.2690774907749078,0.07723247232472324,-4.495276752767528,-5.31929889298893,-176.96815498154982
76,1715781906430,0.64,0.27,0.08,-2.62,-8.67,-180.79
77,1715781906440,0.64,0.27,0.08,-2.62,-8.67,-180.79
78,1715781906450,0.64,0.27,0.08,-2.62,-8.67,-180.79
79,1715781906460,0.631732283464567,0.37748031496062995,0.11307086614173228,11.154015748031496,8.94023622047244,-172.10889763779525
80,1715781906470,0.63,0.4,0.12,14.04,12.63,-170.29
81,1715781906480,0.63,0.4,0.12,14.04,12.63,-170.29
82,1715781906490,0.63,0.4,0.12,14.04,12.63,-170.29
83,1715781906500,0.5263953488372093,0.5036046511627907,0.12,12.711976744186046,20.22139534883721,-167.7563953488372
84,1715781906510,0.52,0.51,0.12,12.63,20.69,-167.6
85,1715781906520,0.52,0.51,0.12,12.63,20.69,-167.6
86,1715781906530,0.4650381679389313,0.5686259541984734,0.09801526717557252,12.63,20.69,-167.6
87,1715781906540,0.37,0.67,0.06,16.332553191489364,15.996893617021277,-156.68468085106383
88,1715781906550,0.37,0.67,0.06,16.48,15.81,-156.25
89,1715781906560,0.37,0.67,0.06,16.48,15.81,-156.25
90,1715781906570,0.34938864628820965,0.6596943231441048,0.0651528384279476,18.37296943231441,11.093668122270744,-155.44541484716157
91,1715781906580,0.33,0.65,0.07,22.95,-0.31,-153.5
92,1715781906590,0.33,0.65,0.07,22.95,-0.31,-153.5
93,1715781906600,0.33,0.65,0.07,22.95,-0.31,-153.5
94,1715781906610,0.2537246963562753,0.7517004048582997,0.03821862348178138,20.70263157894737,-4.9994736842105265,-151.2526315789474
95,1715781906620,0.21,0.81,0.02,18.68,-9.22,-149.23
96,1715781906630,0.21,0.81,0.02,18.68,-9.22,-149.23
97,1715781906640,0.21,0.81,0.02,18.68,-9.22,-149.23
98,1715781906650,0.1727586206896552,0.7820689655172414,0.07586206896551725,19.24185344827586,1.590344827586207,-144.8916379310345
99,1715781906660,0.17,0.78,0.08,19.47,5.98,-143.13
100,1715781906670,0.17,0.78,0.08,19.47,5.98,-143.13
101,1715781906680,0.17,0.78,0.08,19.47,5.98,-143.13
102,1715781906690,0.061040000000000004,0.80724,0.0346,36.796200000000006,33.661719999999995,-134.9292
103,1715781906700,0.05,0.81,0.03,41.02,40.41,-132.93
104,1715781906710,0.05,0.81,0.030000000000000002,41.02,40.41,-132.93
105,1715781906720,0.03736842105263158,0.8197165991902834,0.021740890688259105,41.24801619433198,40.708825910931175,-131.58194331983808
106,1715781906730,-0.21,1.01,-0.14,46.14,47.12,-102.66
107,1715781906740,-0.21,1.01,-0.14,46.14,47.12,-102.66
108,1715781906750,-0.21,1.01,-0.14,46.14000000000001,47.120000000000005,-102.66
109,1715781906760,-0.2732183908045977,1.0150574712643678,-0.15264367816091956,43.84632183908046,48.260613026819925,-100.19697318007663
110,1715781906770,-0.46,1.03,-0.19,36.93,51.7,-92.77
111,1715781906780,-0.46,1.03,-0.19,36.93,51.7,-92.77
112,1715781906790,-0.46,1.03,-0.19,36.93,51.7,-92.77
113,1715781906800,-0.6005829596412556,1.102421524663677,-0.2837219730941704,29.699237668161437,64.88394618834081,-65.02497757847533
114,1715781906810,-0.79,1.2,-0.41,15.14,91.43,-9.16
115,1715781906820,-0.79,1.2,-0.41,15.14,91.43,-9.16
116,1715781906830,-0.79,1.2,-0.41,15.14,91.43,-9.16
117,1715781906840,-0.7135096153846153,1.152451923076923,-0.33971153846153845,4.787403846153846,66.01798076923077,-0.580288461538462
118,1715781906850,-0.42,0.97,-0.07,-36.13,-34.42,33.33
119,1715781906860,-0.42,0.97,-0.07,-36.13000000000001,-34.42,33.33
120,1715781906870,-0.42,0.97,-0.07,-36.13,-34.42,33.33
121,1715781906880,-0.16624999999999998,0.9863709677419356,0.028225806451612902,-22.48616935483871,-24.69443548387097,58.3670564516129
122,1715781906890,-0.11,0.99,0.05,-17.64,-21.24,67.26
123,1715781906900,-0.11,0.99,0.05,-17.64,-21.240000000000002,67.26
124,1715781906910,-0.11,0.99,0.05,-17.64,-21.24,67.26
125,1715781906920,-0.08058365758754864,1.0096108949416343,0.05,-7.707898832684825,20.618638132295718,73.23723735408561
126,1715781906930,-0.08,1.01,0.05,-6.59,25.33,73.91
127,1715781906940,-0.08,1.01,0.05,-6.59,25.33,73.91
128,1715781906950,-0.08,1.01,0.05,-6.59,25.33,73.91
129,1715781906960,-0.09675438596491229,0.9681140350877192,-0.05052631578947369,0.7350000000000002,17.496666666666666,88.56
130,1715781906970,-0.1,0.96,-0.07,2.2,15.93,91.49
131,1715781906980,-0.1,0.96,-0.07,2.2,15.930000000000001,91.49
132,1715781906990,-0.07609958506224067,0.96,-0.07398340248962657,2.2,15.93,91.49
133,1715781907000,0.02,0.96,-0.09,0.4037786259541985,-8.143167938931299,106.22091603053434
134,1715781907010,0.02,0.96,-0.09,0.31,-9.4,106.99
135,1715781907020,0.02,0.96,-0.09,0.31,-9.4,106.99
136,1715781907030,0.06999999999999999,0.9149999999999999,-0.08499999999999999,-2.312713178294574,-11.913953488372094,109.7767441860465
137,1715781907040,0.12,0.87,-0.08,-14.4,-23.5,122.62
138,1715781907050,0.12,0.87,-0.08,-14.4,-23.5,122.62
139,1715781907060,0.12,0.87,-0.08,-14.4,-23.5,122.62
140,1715781907070,0.22409638554216868,0.8179518072289157,-0.04096385542168675,-10.519638554216867,-16.62879518072289,122.72313253012048
141,1715781907080,0.28,0.79,-0.02,-5.37,-7.510000000000001,122.86
142,1715781907090,0.28,0.79,-0.02,-5.37,-7.509999999999999,122.86
143,1715781907100,0.28,0.79,-0.02,-5.37,-7.51,122.86000000000001
144,1715781907110,0.26357446808510643,0.7325106382978723,-0.07748936170212767,-9.38055319148936,1.8535744680851065,135.23991489361703
145,1715781907120,0.26,0.72,-0.09,-12.51,9.16,144.9
146,1715781907130,0.26,0.72,-0.09,-12.509999999999998,9.16,144.9
147,1715781907140,0.26746543778801846,0.7162672811059908,-0.08626728110599077,-12.51,9.16,144.9
148,1715781907150,0.44,0.63,0.0,-17.48042372881356,-18.098135593220338,141.40033898305083
149,1715781907160,0.44,0.63,0.0,-19.1,-26.98,140.26
150,1715781907170,0.44,0.63,0.0,-19.1,-26.98,140.26
151,1715781907180,0.4872727272727273,0.5950592885375494,0.00616600790513834,-18.253715415019766,-25.637470355731224,141.5491699604743
152,1715781907190,0.67,0.46,0.03,-11.17,-14.4,152.34
153,1715781907200,0.67,0.46,0.03,-11.17,-14.4,152.34
154,1715781907210,0.67,0.46,0.03,-11.17,-14.4,152.34
155,1715781907220,0.66,0.47333333333333333,0.023333333333333334,-11.32782222222222,-13.968933333333334,150.644
156,1715781907230,0.64,0.5,0.01,-11.84,-12.57,145.14
157,1715781907240,0.64,0.5,0.01,-11.84,-12.569999999999999,145.14
158,1715781907250,0.64,0.5,0.01,-11.84,-12.57,145.14
159,1715781907260,0.708898678414097,0.406784140969163,0.01,-8.103259911894273,2.170264317180617,150.53436123348015
160,1715781907270,0.81,0.27,0.01,-2.62,23.8,158.44999999999996
161,1715781907280,0.81,0.27,0.01,-2.62,23.8,158.45
162,1715781907290,0.81,0.27,0.01,-2.62,23.8,158.45
163,1715781907300,0.7792946058091287,0.27614107883817435,0.01,-3.1364315352697094,5.213734439834025,150.18182572614108
164,1715781907310,0.76,0.28,0.01,-3.6,-11.47,142.76
165,1715781907320,0.76,0.28,0.01,-3.6,-11.47,142.76
166,1715781907330,0.76,0.28,0.01,-3.6,-11.47,142.76
167,1715781907340,1.0133480176211453,0.12048458149779737,0.05691629955947137,7.858898678414097,28.549647577092507,152.56308370044053
168,1715781907350,1.03,0.11,0.06,10.31,37.11,154.66
169,1715781907360,1.03,0.11,0.06,10.309999999999999,37.11,154.66
170,1715781907370,1.03,0.11,0.06,10.31,37.11,154.66
171,1715781907380,0.9675206611570247,0.11892561983471073,0.024297520661157024,-2.8251652892561987,15.305785123966942,141.85979338842975
172,1715781907390,0.96,0.12,0.019999999999999997,-6.16,9.77,138.61
173,1715781907400,0.96,0.12,0.02,-6.159999999999999,9.77,138.61
174,1715781907410,0.9662068965517241,0.11379310344827585,0.019999999999999997,-6.16,9.77,138.61
175,1715781907420,1.05,0.03,0.02,3.697552742616034,-3.9737974683544297,142.67244725738394
176,1715781907430,1.05,0.03,0.02,3.91,-4.27,142.76
177,1715781907440,1.05,0.03,0.02,3.91,-4.27,142.76
178,1715781907450,1.05,-0.01776119402985075,0.0008955223880597015,3.547313432835821,-4.249999999999999,142.42298507462684
179,1715781907460,1.05,-0.06999999999999999,-0.02,-20.39,-2.93,120.17999999999999
180,1715781907470,1.05,-0.07,-0.02,-20.39,-2.93,120.18
181,1715781907480,1.05,-0.07,-0.02,-20.39,-2.93,120.18
182,1715781907490,1.038041237113402,-0.08793814432989693,0.033814432989690724,-7.993505154639175,-7.153092783505154,122.7057731958763
183,1715781907500,1.03,-0.1,0.07,4.15,-11.29,125.18
184,1715781907510,1.03,-0.1,0.07,4.15,-11.29,125.18
185,1715781907520,1.03,-0.1,0.07,4.15,-11.29,125.18
186,1715781907530,1.038354430379747,-0.13341772151898737,-0.03860759493670885,-6.032489451476794,28.45789029535865,134.77915611814345
187,1715781907540,1.04,-0.14,-0.06,-9.64,42.54,138.18
188,1715781907550,1.04,-0.14,-0.05999999999999999,-9.640000000000002,42.54,138.18
189,1715781907560,1.04,-0.14,-0.06,-9.64,42.54,138.18
190,1715781907570,0.9867906976744186,-0.16865116279069767,-0.03953488372093023,-8.652651162790699,16.5573488372093,128.17702325581396
191,1715781907580,0.91,-0.21,-0.01,-7.200000000000001,-21.67,113.46
192,1715781907590,0.91,-0.21,-0.01,-7.2,-21.67,113.46
193,1715781907600,1.0661224489795917,-0.3385714285714285,0.00836734693877551,0.33371428571428574,14.160857142857143,134.11371428571428
194,1715781907610,1.08,-0.35,0.010000000000000002,1.04,17.52,136.05
195,1715781907620,1.08,-0.35,0.01,1.04,17.52,136.05
196,1715781907630,1.0507488986784141,-0.36828193832599115,0.01,-2.5509251101321584,6.077136563876652,129.50788546255507
197,1715781907640,1.0,-0.4,0.009999999999999998,-14.34,-31.49,108.03
198,1715781907650,1.0,-0.4,0.01,-14.34,-31.49,108.03
199,1715781907660,1.0,-0.4,0.01,-14.34,-31.49,108.03
200,1715781907670,1.0773333333333333,-0.4386666666666667,0.03209523809523809,-5.696095238095238,-15.361523809523808,114.52438095238095
201,1715781907680,1.14,-0.47,0.05,10.19,14.28,126.46
202,1715781907690,1.14,-0.47,0.05,10.19,14.28,126.46
203,1715781907700,1.14,-0.47,0.05,10.19,14.28,126.46
204,1715781907710,0.9536986301369862,-0.4316438356164384,-0.043150684931506846,-2.3783561643835616,14.779908675799085,119.16785388127853
205,1715781907720,0.8,-0.4,-0.12,-12.94,15.2,113.04
206,1715781907730,0.8,-0.4,-0.11999999999999998,-12.94,15.2,113.03999999999999
207,1715781907740,0.8,-0.4,-0.12,-12.94,15.2,113.04
208,1715781907750,1.1895412844036697,-0.656743119266055,0.04821100917431193,-7.559266055045872,0.7266055045871559,109.94412844036697
209,1715781907760,1.24,-0.69,0.07,-6.04,-3.36,109.07
210,1715781907770,1.24,-0.69,0.07,-6.04,-3.36,109.07
211,1715781907780,1.2367420814479637,-0.6886425339366515,0.06796380090497738,-6.04,-3.36,109.07
212,1715781907790,1.0,-0.59,-0.08,-13.180093896713615,20.86920187793427,106.6325821596244
213,1715781907800,1.0,-0.59,-0.08,-13.92,23.38,106.38
214,1715781907810,1.0,-0.59,-0.08,-13.92,23.38,106.38000000000001
215,1715781907820,1.0670833333333334,-0.6321666666666667,-0.05316666666666667,-13.92,23.38,106.37999999999998
216,1715781907830,1.35,-0.81,0.06,-14.099181818181817,23.071409090909093,82.26013636363636
217,1715781907840,1.35,-0.81,0.06,-14.1,23.07,82.15
218,1715781907850,1.35,-0.81,0.06,-14.1,23.07,82.15
219,1715781907860,1.2892207792207793,-0.7762337662337663,0.04987012987012987,-13.467445887445887,21.325411255411257,75.85822510822511
220,1715781907870,1.17,-0.71,0.03,-11.29,15.32,54.2
221,1715781907880,1.17,-0.71,0.03,-11.29,15.32,54.2
222,1715781907890,1.17,-0.71,0.03,-11.29,15.32,54.2
223,1715781907900,1.1828440366972477,-0.71,0.04926605504587156,-8.57440366972477,11.397981651376147,40.452293577981656
224,1715781907910,1.19,-0.7099999999999999,0.05999999999999999,-5.37,6.77,24.23
225,1715781907920,1.19,-0.71,0.06,-5.37,6.77,24.23
226,1715781907930,1.19,-0.71,0.06,-5.37,6.77,24.23
227,1715781907940,1.1517699115044246,-0.6717699115044248,0.02176991150442478,-4.051061946902655,2.6538938053097345,12.174778761061948
228,1715781907950,1.13,-0.65,0.0,-3.2999999999999994,0.31,5.31
229,1715781907960,1.13,-0.65,0.0,-3.3,0.31,5.31
230,1715781907970,1.13,-0.65,0.0,-3.3,0.31,5.31
231,1715781907980,1.095933014354067,-0.6414832535885168,0.008516746411483254,-6.041052631578947,4.848947368421053,-9.846842105263157
232,1715781907990,1.09,-0.64,0.01,-7.0200000000000005,6.47,-15.26
233,1715781908000,1.09,-0.64,0.01,-7.02,6.47,-15.26
234,1715781908010,1.088019801980198,-0.6409900990099009,0.010495049504950496,-7.02,6.470000000000001,-15.26
235,1715781908020,1.05,-0.66,0.02,-1.2033163265306122,13.416479591836735,-26.14311224489796
236,1715781908030,,,,,,
237,1715781908040,1.05,-0.66,0.02,-0.43,14.34,-27.59
238,1715781908050,1.0522685185185185,-0.6622685185185185,0.015462962962962963,-0.4311111111111111,14.30212962962963,-27.669675925925926
239,1715781908060,1.06,-0.6700000000000002,0.0,-0.6700000000000002,6.16,-44.8
240,1715781908070,1.06,-0.67,0.0,-0.67,6.160000000000001,-44.8
241,1715781908080,1.06,-0.67,0.0,-0.67,6.160000000000001,-44.8
242,1715781908090,1.0854205607476635,-0.6699999999999999,0.012710280373831777,-0.5905607476635515,5.817943925233645,-46.6822429906542
243,1715781908100,1.14,-0.6700000000000002,0.04,0.18,2.5,-64.94
244,1715781908110,1.14,-0.67,0.04,0.18000000000000002,2.5,-64.94
245,1715781908120,1.14,-0.67,0.04,0.18000000000000002,2.5,-64.94
246,1715781908130,1.1113215859030836,-0.6577092511013216,0.023612334801762117,1.7167400881057269,6.541057268722467,-67.46229074889867
247,1715781908140,1.07,-0.64,0.0,5.3100000000000005,15.99,-73.36
248,1715781908150,1.07,-0.64,0.0,5.31,15.99,-73.36
249,1715781908160,1.07,-0.64,0.0,5.31,15.99,-73.36
250,1715781908170,1.1211415525114155,-0.6502283105022831,0.030684931506849315,4.574520547945205,10.031369863013698,-80.86853881278539
251,1715781908180,1.17,-0.66,0.06,3.54,1.65,-91.43
252,1715781908190,1.17,-0.66,0.06,3.54,1.65,-91.43
253,1715781908200,1.17,-0.6600000000000001,0.06,3.5400000000000005,1.65,-91.43000000000002
254,1715781908210,1.0997674418604653,-0.5897674418604651,0.024883720930232556,6.9909302325581395,8.794883720930233,-92.04860465116279
255,1715781908220,1.07,-0.56,0.01,11.35,17.82,-92.83
256,1715781908230,1.07,-0.56,0.01,11.35,17.82,-92.83
257,1715781908240,1.07,-0.56,0.01,11.35,17.82,-92.83
258,1715781908250,1.1013636363636363,-0.5662727272727273,0.016272727272727272,11.044863636363635,9.799272727272728,-107.92490909090908
259,1715781908260,1.12,-0.57,0.02,10.860000000000001,4.94,-117.07
260,1715781908270,1.12,-0.57,0.019999999999999997,10.86,4.94,-117.07
261,1715781908280,1.12,-0.57,0.02,10.860000000000001,4.94,-117.07
262,1715781908290,1.0900990099009902,-0.5027227722772277,-0.0024257425742574257,5.5134653465346535,6.618217821782179,-133.10960396039604
263,1715781908300,1.08,-0.48,-0.01,3.66,7.2,-138.67
264,1715781908310,1.08,-0.48,-0.01,3.66,7.2,-138.67
265,1715781908320,1.084646017699115,-0.4784513274336283,-0.005353982300884956,3.66,7.2,-138.67
266,1715781908330,1.11,-0.47,0.02,5.622943722943723,5.067186147186147,-149.78705627705628
267,1715781908340,1.11,-0.47,0.02,5.74,4.94,-150.45
268,1715781908350,1.11,-0.47,0.02,5.74,4.94,-150.45
269,1715781908360,1.1103030303030306,-0.4675757575757576,0.019696969696969695,5.670555555555556,4.998585858585859,-150.69191919191917
270,1715781908370,1.12,-0.39,0.01,2.99,7.26,-160.03
271,1715781908380,1.12,-0.39,0.01,2.99,7.26,-160.03
272,1715781908390,1.12,-0.39,0.01,2.99,7.26,-160.03
273,1715781908400,1.115277777777778,-0.3522222222222222,0.019444444444444445,3.335,7.259999999999999,-164.06125
274,1715781908410,1.11,-0.31,0.03,3.91,7.26,-170.78
275,1715781908420,1.11,-0.31,0.03,3.91,7.26,-170.78
276,1715781908430,1.11,-0.31,0.030000000000000002,3.9099999999999997,7.26,-170.78
277,1715781908440,1.0516956521739131,-0.22578260869565217,0.03647826086956522,6.934521739130435,14.829391304347826,-173.24382608695652
278,1715781908450,1.02,-0.18000000000000002,0.04,9.520000000000001,21.300000000000004,-175.34999999999997
279,1715781908460,1.02,-0.18,0.04,9.52,21.3,-175.35
280,1715781908470,1.02,-0.18,0.04,9.52,21.3,-175.35
281,1715781908480,1.02,-0.18,0.04,9.52,21.300000000000004,-175.34999999999997
282,1715781908490,1.02,-0.18,0.04,9.52,21.3,-175.35
283,1715781908500,0.9813658536585366,-0.11560975609756097,0.0464390243902439,9.52,21.3,-175.35
284,1715781908510,0.96,-0.08,0.05,9.52,21.3,-175.35
285,1715781908520,0.9600000000000001,-0.08,0.05000000000000001,9.52,21.3,-175.35
286,1715781908530,0.96,-0.08,0.05,9.52,21.3,-175.35
287,1715781908540,0.96,-0.08,0.05,9.519999999999998,21.3,-175.35
288,1715781908550,0.96,-0.08,0.05,9.519999999999998,21.3,-175.35
289,1715781908560,0.8608,0.07067999999999999,0.04456,8.79608,8.39976,-176.53604
290,1715781908570,0.7899999999999999,0.18,0.04,6.71,-8.48,-178.59
291,1715781908580,0.7899999999999999,0.18,0.04,6.710000000000001,-8.48,-178.59
292,1715781908590,0.79,0.18,0.039999999999999994,6.710000000000001,-8.48,-178.58999999999997
293,1715781908600,0.79,0.18,0.04,6.71,-8.48,-178.59
294,1715781908610,0.79,0.17999999999999997,0.04,6.71,-8.48,-178.59
295,1715781908620,0.79,0.18,0.04,6.71,-8.48,-178.59
296,1715781908630,0.79,0.18,0.04,6.71,-8.48,-178.59
297,1715781908640,0.693211009174312,0.3255963302752294,0.047614678899082566,11.4948623853211,6.445412844036698,-172.64669724770644
298,1715781908650,0.5700000000000001,0.42,0.02,15.26,18.19,-167.97
299,1715781908660,0.6065486725663716,0.42,0.05132743362831858,11.942477876106194,7.222212389380532,-164.41884955752215
300,1715781908670,0.64,0.42,0.08,7.45,-7.63,-159.61
301,1715781908680,0.64,0.42,0.08,7.45,-7.63,-159.61
302,1715781908690,0.64,0.42,0.08,7.450000000000001,-7.63,-159.61
303,1715781908700,0.64,0.42,0.08,7.45,-7.63,-159.61
304,1715781908710,0.5693805309734513,0.4788495575221239,0.09176991150442479,14.558008849557522,5.26070796460177,-150.91783185840708
305,1715781908720,0.52,0.52,0.1,21.18,17.27,-142.82
306,1715781908730,0.5162231759656652,0.5237768240343348,0.0969098712446352,21.18,17.27,-142.82
307,1715781908740,0.4099999999999999,0.63,0.01,11.901012658227849,8.41012658227848,-127.59544303797468
308,1715781908750,0.41,0.63,0.009999999999999998,11.66,8.18,-127.2
309,1715781908760,0.41,0.63,0.01,11.660000000000002,8.18,-127.2
310,1715781908770,0.42598130841121495,0.6486448598130842,0.03130841121495327,11.58411214953271,6.515046728971963,-127.80252336448599
311,1715781908780,0.47,0.7,0.09,10.5,-17.27,-136.41
312,1715781908790,0.47,0.7,0.09,10.5,-17.27,-136.41
313,1715781908800,0.47,0.7,0.09,10.5,-17.27,-136.41
314,1715781908810,0.47,0.7094736842105264,0.07578947368421053,10.5,-17.27,-136.41
315,1715781908820,0.47000000000000003,0.72,0.06,23.151785714285715,5.298839285714286,-122.75580357142857
316,1715781908830,0.47,0.72,0.06,23.5,5.92,-122.38
317,1715781908840,0.47,0.72,0.05999999999999999,23.5,5.92,-122.37999999999998
318,1715781908850,0.37,0.7933333333333332,0.013333333333333332,24.616470588235295,12.212313725490196,-121.15474509803921
319,1715781908860,0.32,0.83,-0.01,25.45,16.91,-120.24
320,1715781908870,0.32000000000000006,0.8299999999999998,-0.010000000000000002,25.45,16.91,-120.23999999999998
321,1715781908880,0.32,0.83,-0.01,25.45,16.91,-120.24
322,1715781908890,0.22037735849056603,0.8481132075471697,-0.05528301886792452,25.016745283018867,1.4231132075471697,-124.23382075471697
323,1715781908900,0.21,0.85,-0.06,24.9,-2.75,-125.31
324,1715781908910,0.21,0.85,-0.06,24.899999999999995,-2.75,-125.31
325,1715781908920,0.21,0.85,-0.06,24.9,-2.75,-125.31
326,1715781908930,0.18140425531914892,0.8785957446808511,-0.04093617021276596,23.23212765957447,2.52731914893617,-123.53093617021277
327,1715781908940,0.18,0.88,-0.04,22.95,3.42,-123.23
328,1715781908950,0.18,0.88,-0.04,22.95,3.42,-123.23
329,1715781908960,0.16525114155251142,0.884337899543379,-0.041735159817351604,23.01493150684931,6.28931506849315,-122.5782191780822
330,1715781908970,0.01,0.9300000000000002,-0.06,23.739999999999995,38.32999999999999,-115.3
331,1715781908980,0.01,0.93,-0.06,23.74,38.33,-115.3
332,1715781908990,0.01,0.93,-0.060000000000000005,23.74,38.33,-115.3
333,1715781909000,-0.04544642857142857,0.9382142857142857,-0.08053571428571428,23.860714285714284,37.86919642857142,-112.24616071428571
334,1715781909010,-0.26,0.97,-0.16,24.78,34.36,-88.99000000000001
335,1715781909020,-0.26,0.9700000000000001,-0.16,24.78,34.36,-88.99
336,1715781909030,-0.26,0.97,-0.16000000000000003,24.78,34.36,-88.98999999999998
337,1715781909040,-0.3181132075471698,1.0281132075471697,-0.16,22.19924528301887,30.94188679245283,-78.02773584905661
338,1715781909050,-0.42,1.13,-0.16,15.01,21.42,-47.49
339,1715781909060,-0.42,1.13,-0.16000000000000003,15.009999999999998,21.42,-47.49
340,1715781909070,-0.41999999999999993,1.13,-0.16,15.01,21.42,-47.49000000000001
341,1715781909080,-0.40782978723404256,1.0813191489361702,-0.16608510638297871,8.547617021276595,25.95340425531915,-23.125234042553192
342,1715781909090,-0.4,1.05,-0.17,4.39,28.87,-7.45
343,1715781909100,-0.4,1.05,-0.17,4.39,28.87,-7.45
344,1715781909110,-0.4,1.05,-0.17,4.39,28.87,-7.45
345,1715781909120,-0.3314410480349345,1.0568558951965066,-0.1288646288209607,-6.291572052401746,8.208515283842795,16.542663755458516
346,1715781909130,-0.3,1.06,-0.11,-11.29,-1.46,27.77
347,1715781909140,-0.3,1.06,-0.11000000000000001,-11.29,-1.46,27.77
348,1715781909150,-0.3,1.06,-0.11,-11.290000000000001,-1.46,27.77
349,1715781909160,-0.17146551724137932,0.9957327586206897,-0.04573275862068965,-9.38,-1.0648275862068965,50.434784482758616
350,1715781909170,-0.16,0.99,-0.04,-8.97,-0.98,55.3
351,1715781909180,-0.16,0.9900000000000001,-0.04,-8.97,-0.98,55.3
352,1715781909190,-0.15959641255605383,0.9898654708520179,-0.04040358744394619,-8.891165919282512,-0.8004484304932735,55.465829596412554
353,1715781909200,-0.13,0.98,-0.07,-0.18,19.04,73.78999999999999
354,1715781909210,-0.13,0.98,-0.07,-0.18,19.04,73.79
355,1715781909220,-0.13,0.98,-0.07,-0.18,19.04,73.79
356,1715781909230,-0.11895238095238095,0.9717142857142858,-0.07276190476190476,-0.8033809523809524,17.453380952380954,74.98785714285715
357,1715781909240,-0.05,0.92,-0.09,-10.25,-6.59,93.14
358,1715781909250,-0.05,0.92,-0.09,-10.25,-6.59,93.14
359,1715781909260,-0.05,0.92,-0.09,-10.25,-6.59,93.14
360,1715781909270,-0.0038211382113821153,0.9142276422764228,-0.08422764227642277,-9.817479674796747,-4.837154471544715,98.10829268292683
361,1715781909280,0.11,0.9,-0.07,-8.73,-0.43,110.6
362,1715781909290,0.11,0.9,-0.07,-8.73,-0.43,110.6
363,1715781909300,0.11,0.9,-0.07,-8.73,-0.43,110.6
364,1715781909310,0.18397379912663755,0.8462008733624454,-0.06327510917030568,-14.992794759825328,-7.27825327510917,115.84227074235808
365,1715781909320,0.22,0.82,-0.06,-20.39,-13.18,120.36
366,1715781909330,0.22,0.82,-0.06,-20.39,-13.18,120.36
367,1715781909340,0.21999999999999997,0.82,-0.06,-20.39,-13.18,120.36000000000001
368,1715781909350,0.2627184466019417,0.798640776699029,-0.05572815533980583,-21.04315533980583,-7.673932038834951,123.61631067961164
369,1715781909360,0.32,0.77,-0.05,-22.46,4.27,130.68
370,1715781909370,0.32,0.77,-0.05,-22.46,4.27,130.68
371,1715781909380,0.3323553719008265,0.7657024793388431,-0.04570247933884298,-22.46,4.27,130.68
372,1715781909390,0.55,0.69,0.03,-15.65815668202765,11.251336405529953,133.15511520737329
373,1715781909400,0.55,0.69,0.03,-15.259999999999998,11.66,133.3
374,1715781909410,0.55,0.69,0.03,-15.26,11.66,133.3
375,1715781909420,0.5339269406392695,0.6980365296803652,0.01995433789954338,-15.26,11.66,133.3
376,1715781909430,0.47,0.73,-0.02,-25.21,-19.96,113.28
377,1715781909440,0.47,0.73,-0.02,-25.21,-19.96,113.28
378,1715781909450,0.47,0.73,-0.019999999999999997,-25.21,-19.96,113.28
379,1715781909460,0.5591743119266055,0.6639449541284405,0.0031192660550458723,-22.258761467889908,-8.489954128440369,117.16178899082568
380,1715781909470,0.7400000000000001,0.53,0.05,-12.08,31.069999999999997,130.55
381,1715781909480,0.74,0.53,0.05,-12.08,31.07,130.55
382,1715781909490,0.74,0.53,0.05,-12.08,31.07,130.55
383,1715781909500,0.5993488372093022,0.5664651162790698,-0.012511627906976746,-14.602790697674418,20.085813953488373,128.05623255813953
384,1715781909510,0.47,0.6,-0.07,-23.380000000000003,-18.130000000000003,119.38
385,1715781909520,0.47000000000000003,0.6,-0.07,-23.38,-18.13,119.38
386,1715781909530,0.47,0.6,-0.07,-23.38,-18.13,119.38
387,1715781909540,0.8085152838427948,0.40751091703056763,0.07602620087336244,-12.121965065502183,1.7998253275109173,125.91532751091704
388,1715781909550,0.98,0.31000000000000005,0.15,1.65,26.18,133.91
389,1715781909560,0.9799999999999999,0.31,0.15,1.65,26.18,133.91
390,1715781909570,0.98,0.30999999999999994,0.15,1.65,26.18,133.91
391,1715781909580,0.6385477178423236,0.4150622406639004,-0.02510373443983403,-9.439792531120332,27.165892116182572,131.43033195020746
392,1715781909590,0.59,0.43,-0.05000000000000001,-16.91,27.83,129.76
393,1715781909600,0.59,0.43,-0.05,-16.91,27.83,129.76
394,1715781909610,0.59,0.43,-0.05,-16.91,27.830000000000002,129.76
395,1715781909620,0.9875918367346939,0.2273061224489796,0.1293061224489796,-0.8100816326530612,27.212448979591837,135.92097959183673
396,1715781909630,1.1,0.17,0.18,5.25,26.979999999999997,138.24
397,1715781909640,1.1,0.17,0.18,5.25,26.98,138.24
398,1715781909650,1.0489201877934273,0.1895305164319249,0.1544600938967136,5.25,26.98,138.24
399,1715781909660,0.76,0.3,0.01,-9.162749003984063,48.79824701195219,136.7987250996016
400,1715781909670,0.7600000000000001,0.3,0.01,-9.949999999999998,49.99,136.72
401,1715781909680,0.7600000000000001,0.3,0.01,-9.95,49.99000000000001,136.72
402,1715781909690,0.9118584070796459,0.23442477876106194,0.10663716814159291,-10.750353982300885,53.93725663716814,136.03858407079647
403,1715781909700,1.2,0.11,0.29,-13.18,65.92,133.97
404,1715781909710,1.2,0.11,0.29,-13.18,65.92,133.97
405,1715781909720,1.2,0.11,0.29,-13.179999999999998,65.92,133.97
406,1715781909730,0.933568281938326,0.15440528634361234,0.14568281938325991,-29.078017621145374,66.53982378854626,135.15876651982379
407,1715781909740,0.72,0.19,0.03,-47.55,67.26,136.54
408,1715781909750,0.72,0.19,0.03,-47.55,67.26,136.54
409,1715781909760,0.72,0.19,0.029999999999999995,-47.55,67.26,136.54
410,1715781909770,0.8684651162790697,0.08748837209302325,0.12544186046511627,-40.60041860465116,31.076930232558144,127.28213953488373
411,1715781909780,1.14,-0.1,0.29999999999999993,-27.89,-35.1,110.35
412,1715781909790,1.14,-0.10000000000000002,0.3,-27.89,-35.1,110.34999999999998
413,1715781909800,1.14,-0.1,0.3,-27.89,-35.1,110.35
414,1715781909810,1.0144186046511627,-0.05813953488372093,0.20790697674418607,-19.65074418604651,1.7213023255813942,115.7520465116279
415,1715781909820,0.99,-0.05,0.19,-13.37,29.79,119.87
416,1715781909830,0.99,-0.05,0.19,-13.37,29.79,119.87
417,1715781909840,0.99,-0.05,0.19,-13.37,29.79,119.87
418,1715781909850,0.9899999999999999,-0.05,0.19000000000000003,-13.37,29.79,119.87
419,1715781909860,0.99,-0.05,0.19,-13.37,29.79,119.87
420,1715781909870,0.99,-0.05,0.19,-13.37,29.79,119.87
421,1715781909880,0.99,-0.05,0.19,-13.370000000000001,29.79,119.86999999999999
422,1715781909890,0.99,-0.05,0.19,-13.370000000000001,29.79,119.87000000000002
423,1715781909900,0.9869396551724138,-0.054439655172413795,0.18547413793103448,-13.222974137931034,29.465474137931032,120.43133620689655
424,1715781909910,0.92,-0.14,0.08,-9.16,30.58,134.95
425,1715781909920,0.9201716738197425,-0.14124463519313307,0.08004291845493564,-9.238583690987126,30.110042918454933,134.89944206008582
426,1715781909930,0.96,-0.43,0.09,-27.47,-78.92,123.17
427,1715781909940,0.9600000000000001,-0.43,0.09,-27.470000000000002,-78.92,123.17
428,1715781909950,0.9764347826086955,-0.43730434782608696,0.09365217391304348,-27.47,-78.92000000000002,123.17000000000002
429,1715781909960,1.23,-0.55,0.15,-6.761528384279475,3.5027074235807856,132.8607423580786
430,1715781909970,1.2300000000000002,-0.55,0.15,-5.31,9.28,133.54
431,1715781909980,1.23,-0.55,0.15,-5.31,9.280000000000001,133.54
432,1715781909990,1.23,-0.55,0.15,-5.31,9.28,133.54
433,1715781910000,1.180736842105263,-0.5390526315789473,0.10621052631578948,-7.983894736842106,-4.467157894736843,127.87747368421051
434,1715781910010,1.05,-0.51,-0.01,-15.08,-40.95,112.85
435,1715781910020,1.05,-0.51,-0.01,-15.08,-40.95,112.85
436,1715781910030,1.1787922705314011,-0.6097101449275363,0.04400966183574879,-14.119227053140095,-34.25647342995169,108.21830917874395
437,1715781910040,1.3599999999999999,-0.75,0.11999999999999998,-10.56,-9.46,91.06
438,1715781910050,1.36,-0.75,0.12,-10.56,-9.46,91.06
439,1715781910060,1.36,-0.75,0.12,-10.56,-9.46,91.06
440,1715781910070,1.2315918367346939,-0.6274285714285714,0.038285714285714284,-9.500408163265305,-14.574938775510205,81.12391836734695
441,1715781910080,1.1400000000000001,-0.54,-0.02,-8.36,-20.08,70.43
442,1715781910090,1.14,-0.54,-0.02,-8.36,-20.08,70.43
443,1715781910100,1.14,-0.54,-0.02,-8.36,-20.08,70.43
444,1715781910110,1.2434222222222222,-0.5956888888888889,0.043644444444444444,-6.021111111111111,-6.718888888888888,59.852222222222224
445,1715781910120,1.27,-0.61,0.06,-4.15,3.97,51.39
446,1715781910130,1.27,-0.61,0.06,-4.15,3.97,51.39
447,1715781910140,1.27,-0.61,0.06,-4.15,3.97,51.39
448,1715781910150,1.182633744855967,-0.5464609053497942,0.004403292181069958,-3.8576543209876544,-0.8576543209876544,37.64975308641975
449,1715781910160,1.16,-0.53,-0.01,-3.78,-2.14,34.0
450,1715781910170,1.1600000000000001,-0.53,-0.01,-3.78,-2.14,34.0
451,1715781910180,1.16,-0.53,-0.01,-3.78,-2.14,34.0
452,1715781910190,1.16,-0.53,-0.01,-3.7800000000000002,-2.14,34.0
453,1715781910200,1.1998214285714286,-0.5499107142857144,0.01986607142857143,-6.945803571428571,7.098571428571428,12.05839285714286
454,1715781910210,1.2,-0.55,0.02,-6.96,7.14,11.96
455,1715781910220,1.2,-0.55,0.02,-6.96,7.14,11.96
456,1715781910230,1.1977118644067795,-0.5534322033898306,0.02343220338983051,-6.9948305084745765,7.118262711864406,11.714025423728815
457,1715781910240,1.18,-0.58,0.05,-9.7,5.43,-7.39
458,1715781910250,1.18,-0.58,0.05,-9.7,5.43,-7.39
459,1715781910260,1.175432098765432,-0.58,0.0545679012345679,-7.888065843621399,8.567654320987655,-15.116954732510289
460,1715781910270,1.17,-0.58,0.06,-4.52,14.4,-29.48
461,1715781910280,1.17,-0.5800000000000001,0.06,-4.52,14.4,-29.48
462,1715781910290,1.17,-0.58,0.06,-4.52,14.4,-29.480000000000004
463,1715781910300,1.1957740585774057,-0.5864435146443514,0.08577405857740586,-3.4944769874476984,10.977991631799163,-40.15623430962343
464,1715781910310,1.21,-0.59,0.1,-2.62,8.06,-49.26
465,1715781910320,1.21,-0.59,0.1,-2.62,8.06,-49.26
466,1715781910330,1.21,-0.59,0.1,-2.62,8.06,-49.26
467,1715781910340,1.1776521739130434,-0.5495652173913044,0.043391304347826086,0.1982608695652172,8.352173913043478,-60.77652173913044
468,1715781910350,1.17,-0.54,0.03,2.01,8.54,-68.18
469,1715781910360,1.1699999999999997,-0.54,0.029999999999999995,2.01,8.54,-68.18
470,1715781910370,1.17,-0.54,0.030000000000000002,2.01,8.54,-68.18
471,1715781910380,1.2231277533039646,-0.5577092511013216,0.06541850220264318,2.653259911894273,6.577400881057269,-83.36224669603524
472,1715781910390,1.23,-0.56,0.07,2.99,5.55,-91.31
473,1715781910400,1.23,-0.56,0.07,2.99,5.55,-91.31
474,1715781910410,1.23,-0.56,0.07,2.99,5.55,-91.31
475,1715781910420,1.1838461538461538,-0.5138461538461538,0.03307692307692308,0.43820512820512825,-0.7105128205128206,-105.88230769230769
476,1715781910430,1.18,-0.51,0.030000000000000002,-0.12000000000000001,-2.08,-109.07
477,1715781910440,1.18,-0.51,0.030000000000000002,-0.12000000000000001,-2.08,-109.07
478,1715781910450,1.18,-0.51,0.03,-0.12,-2.08,-109.07
479,1715781910460,1.1887962962962961,-0.4924074074074074,0.0651851851851852,5.087407407407407,6.56675925925926,-124.69222222222223
480,1715781910470,1.19,-0.49,0.07,5.8,7.75,-126.83
481,1715781910480,1.19,-0.49,0.07,5.8,7.75,-126.83
482,1715781910490,1.170093457943925,-0.46014018691588787,0.05672897196261682,5.8,7.75,-126.83
483,1715781910500,1.1300000000000001,-0.4,0.03,4.097215189873418,8.058691983122364,-134.48755274261606
484,1715781910510,1.13,-0.4,0.03,4.09,8.06,-134.52
485,1715781910520,1.13,-0.4,0.03,4.09,8.06,-134.52
486,1715781910530,1.1383842794759824,-0.38323144104803497,0.03419213973799127,3.6834497816593887,2.185764192139738,-140.4191266375546
487,1715781910540,1.15,-0.36,0.04,3.11,-6.1,-148.74
488,1715781910550,1.15,-0.36,0.04,3.11,-6.1,-148.74
489,1715781910560,1.15,-0.36,0.04,3.11,-6.1,-148.74
490,1715781910570,1.1,-0.3016666666666667,0.03166666666666666,3.912807017543859,1.7461842105263161,-151.6125438596491
491,1715781910580,1.09,-0.29,0.03,4.39,6.41,-153.32
492,1715781910590,1.09,-0.29,0.03,4.39,6.41,-153.32000000000002
493,1715781910600,1.09,-0.29,0.03,4.39,6.41,-153.32
494,1715781910610,1.09,-0.19462962962962962,0.03,1.927037037037037,5.3368518518518515,-160.9463888888889
495,1715781910620,1.09,-0.19,0.03,1.59,5.19,-161.99
496,1715781910630,1.09,-0.19,0.03,1.59,5.19,-161.99
497,1715781910640,1.0862195121951221,-0.1836991869918699,0.03504065040650406,1.59,5.19,-161.99
498,1715781910650,1.06,-0.14,0.07,5.958564356435643,2.9781683168316833,-167.8462376237624
499,1715781910660,1.06,-0.14,0.07,7.14,2.38,-169.43
500,1715781910670,1.06,-0.14,0.07,7.14,2.38,-169.43
501,1715781910680,1.0361764705882353,-0.10294117647058826,0.06470588235294118,8.196323529411764,7.129411764705882,-169.16470588235293
502,1715781910690,0.97,0.0,0.05000000000000001,13.67,31.74,-167.79000000000002
503,1715781910700,0.97,0.0,0.05,13.67,31.740000000000002,-167.79
504,1715781910710,0.97,0.0,0.05,13.669999999999998,31.74,-167.79
505,1715781910720,0.9022175732217573,0.05271966527196653,0.019874476987447702,12.215062761506276,23.217824267782426,-168.4207531380753
506,1715781910730,0.79,0.14,-0.03,8.48,1.34,-170.04
507,1715781910740,0.79,0.14,-0.03,8.48,1.34,-170.04
508,1715781910750,0.7899999999999999,0.14,-0.030000000000000002,8.48,1.34,-170.04
509,1715781910760,0.8211111111111111,0.14622222222222225,0.007333333333333333,8.461333333333332,-0.8253333333333333,-171.02933333333334
510,1715781910770,0.89,0.16,0.09,8.42,-5.62,-173.22
511,1715781910780,0.8899999999999999,0.15999999999999998,0.09,8.42,-5.619999999999999,-173.22
512,1715781910790,0.89,0.16,0.09,8.42,-5.62,-173.22
513,1715781910800,0.7766949152542373,0.2813983050847457,0.06572033898305085,13.840889830508473,18.5985593220339,-160.75983050847458
514,1715781910810,0.75,0.31,0.06,15.989999999999998,28.2,-155.82
515,1715781910820,0.75,0.31,0.05999999999999999,15.99,28.2,-155.82
516,1715781910830,0.7303240740740741,0.3250462962962963,0.05305555555555555,15.99675925925926,28.057037037037034,-155.76694444444442
517,1715781910840,0.58,0.44,0.0,16.72,12.76,-150.09
518,1715781910850,0.58,0.44,0.0,16.72,12.76,-150.09
519,1715781910860,0.58,0.44,0.0,16.72,12.76,-150.09
520,1715781910870,0.5739823008849557,0.4580530973451327,0.02106194690265487,15.858628318584069,9.850663716814159,-150.55460176991153
521,1715781910880,0.56,0.5,0.07,7.45,-18.55,-155.09
522,1715781910890,0.56,0.5,0.07,7.45,-18.55,-155.09
523,1715781910900,0.56,0.5,0.07,7.45,-18.55,-155.09
524,1715781910910,0.5593133047210301,0.5030901287553649,0.07,7.631459227467811,-18.174163090128754,-154.60600858369096
525,1715781910920,0.54,0.5900000000000001,0.07,13.49,-6.04,-138.98
526,1715781910930,0.54,0.59,0.07,13.49,-6.04,-138.98
527,1715781910940,0.54,0.59,0.07,13.49,-6.039999999999999,-138.98
528,1715781910950,0.4646696035242291,0.6402202643171806,0.049911894273127755,14.809471365638766,0.7532158590308371,-136.29295154185021
529,1715781910960,0.39,0.69,0.030000000000000002,17.33,13.73,-131.16
530,1715781910970,0.39,0.69,0.03,17.33,13.73,-131.16
531,1715781910980,0.39000000000000007,0.69,0.03,17.33,13.730000000000002,-131.16
532,1715781910990,0.45666666666666667,0.6833333333333335,0.056666666666666664,13.242162162162161,-3.5560360360360352,-127.59018018018018
533,1715781911000,0.49,0.68,0.07,10.07,-16.97,-124.82
534,1715781911010,0.48999999999999994,0.68,0.07,10.070000000000002,-16.97,-124.82
535,1715781911020,0.49,0.68,0.07,10.07,-16.97,-124.82
536,1715781911030,0.34973094170403585,0.7872645739910314,0.04524663677130045,26.443094170403587,9.263497757847535,-120.39780269058295
537,1715781911040,0.32,0.81,0.04,32.47,18.92,-118.77
538,1715781911050,0.32,0.8099999999999999,0.04,32.47,18.92,-118.77
539,1715781911060,0.32000000000000006,0.81,0.04000000000000001,32.47,18.92,-118.77
540,1715781911070,0.22911016949152543,0.8379661016949153,-0.05088983050847457,31.32148305084746,22.477457627118646,-113.8814406779661
541,1715781911080,0.19,0.85,-0.09,30.52,24.96,-110.47
542,1715781911090,0.19,0.85,-0.09,30.52,24.96,-110.47
543,1715781911100,0.18507042253521128,0.8559154929577465,-0.09,30.52,24.96,-110.47
544,1715781911110,0.14,0.9100000000000001,-0.09000000000000001,24.586301369863012,10.886164383561644,-108.18876712328768
545,1715781911120,0.14,0.91,-0.09,16.24,-8.91,-104.98
546,1715781911130,0.14,0.91,-0.08999999999999998,16.24,-8.91,-104.98
547,1715781911140,0.1297787610619469,0.9065929203539823,-0.0661504424778761,16.091150442477876,-7.1084070796460175,-104.14977876106195
548,1715781911150,0.11,0.9,-0.02,15.08,5.13,-98.51
549,1715781911160,0.11,0.9,-0.02,15.08,5.13,-98.51
550,1715781911170,0.11,0.9,-0.02,15.08,5.13,-98.51
551,1715781911180,0.10317535545023697,0.9034123222748816,-0.02227488151658768,15.356824644549762,5.79781990521327,-97.7718009478673
552,1715781911190,-0.01,0.96,-0.06,20.389999999999997,17.94,-84.35
553,1715781911200,-0.01,0.9599999999999999,-0.05999999999999999,20.39,17.94,-84.35
554,1715781911210,-0.01,0.96,-0.06,20.39,17.94,-84.35
555,1715781911220,-0.07764705882352942,1.0172398190045249,-0.07561085972850679,17.679819004524887,18.298371040723982,-76.17466063348415
556,1715781911230,-0.14,1.07,-0.09,14.34,18.74,-66.1
557,1715781911240,-0.14,1.07,-0.08999999999999998,14.339999999999998,18.74,-66.1
558,1715781911250,-0.14,1.07,-0.09,14.34,18.74,-66.1
559,1715781911260,-0.28119148936170213,1.07,-0.1437872340425532,15.772510638297872,25.788170212765955,-51.60604255319149
560,1715781911270,-0.35,1.07,-0.17,16.97,31.68,-39.49
561,1715781911280,-0.35,1.07,-0.17,16.97,31.68,-39.49
562,1715781911290,-0.35,1.07,-0.17,16.97,31.68,-39.49
563,1715781911300,-0.4281512605042017,1.109075630252101,-0.16218487394957984,13.296764705882351,28.50058823529412,-11.741176470588236
564,1715781911310,-0.45,1.12,-0.16,11.54,26.98,1.53
565,1715781911320,-0.45,1.12,-0.16,11.54,26.98,1.53
566,1715781911330,-0.4488362068965517,1.119353448275862,-0.16012931034482758,11.54,26.979999999999997,1.5299999999999998
567,1715781911340,-0.36,1.07,-0.17,7.202616822429906,27.037196261682244,18.836635514018692
568,1715781911350,-0.36,1.07,-0.17,2.44,27.1,37.84
569,1715781911360,-0.36,1.07,-0.17,2.44,27.1,37.84
570,1715781911370,-0.36,1.07,-0.17,2.44,27.1,37.84
571,1715781911380,-0.21066666666666667,1.0102666666666666,-0.12022222222222223,-9.429866666666667,-4.046666666666667,63.3632
572,1715781911390,-0.21000000000000002,1.01,-0.12,-11.47,-9.4,67.75
573,1715781911400,-0.20999999999999996,1.01,-0.12,-11.47,-9.4,67.75
574,1715781911410,-0.19733333333333333,1.0049333333333335,-0.1183111111111111,-10.9628,-9.6392,69.33160000000001
575,1715781911420,-0.06,0.9499999999999998,-0.10000000000000002,-5.13,-12.39,87.52000000000001
576,1715781911430,-0.06,0.95,-0.1,-5.13,-12.39,87.52000000000001
577,1715781911440,-0.06,0.95,-0.1,-5.13,-12.39,87.52
578,1715781911450,-0.051928251121076234,0.9483856502242152,-0.09838565022421525,-5.5157399103139015,-11.803766816143499,88.6139461883408
579,1715781911460,0.04,0.93,-0.08,-10.19,-4.7,101.87
580,1715781911470,0.04,0.93,-0.08,-10.19,-4.7,101.87
581,1715781911480,0.04,0.93,-0.08,-10.19,-4.7,101.87
582,1715781911490,0.1335,0.862,-0.0545,-11.978375,-6.787625,106.1735
583,1715781911500,0.15,0.85,-0.05,-12.7,-7.630000000000001,107.91
584,1715781911510,0.15,0.85,-0.05,-12.7,-7.630000000000001,107.91
585,1715781911520,0.15,0.85,-0.05000000000000001,-12.699999999999998,-7.63,107.90999999999998
586,1715781911530,0.22744292237442923,0.8112785388127854,-0.05968036529680366,-6.724931506849315,28.89018264840183,125.17424657534247
587,1715781911540,0.23,0.81,-0.06,-5.92,33.81,127.5
588,1715781911550,0.23,0.8099999999999999,-0.06,-5.92,33.81,127.5
589,1715781911560,0.22833333333333336,0.8083333333333333,-0.06166666666666666,-5.92,33.81,127.5
590,1715781911570,0.21,0.79,-0.08,-23.352264150943398,20.944716981132075,131.47424528301886
591,1715781911580,0.21,0.7899999999999999,-0.08,-23.86,20.57,131.59
592,1715781911590,0.21,0.79,-0.08,-23.86,20.57,131.59
593,1715781911600,0.24888888888888888,0.7575925925925927,-0.062175925925925926,-23.53847222222222,20.934583333333332,133.04
594,1715781911610,0.45,0.59,0.03,-19.23,25.82,152.47
595,1715781911620,0.45,0.59,0.03,-19.23,25.82,152.47
596,1715781911630,0.45000000000000007,0.59,0.03,-19.23,25.82,152.47
597,1715781911640,0.439126213592233,0.600873786407767,0.005533980582524271,-21.30417475728155,12.562135922330098,150.99116504854368
598,1715781911650,0.41,0.63,-0.06,-26.86,-22.95,147.03
599,1715781911660,0.4099999999999999,0.63,-0.06,-26.86,-22.95,147.03
600,1715781911670,0.41,0.63,-0.05999999999999999,-26.86,-22.95,147.03
601,1715781911680,0.4466810344827586,0.6022413793103448,-0.04413793103448276,-26.02646551724138,-21.844310344827587,148.10724137931032
602,1715781911690,0.78,0.35,0.1,-18.07,-11.29,158.39
603,1715781911700,0.78,0.35,0.1,-18.07,-11.29,158.39
604,1715781911710,0.78,0.35,0.1,-18.07,-11.29,158.39
605,1715781911720,0.7241232227488151,0.3872511848341232,0.03170616113744076,-12.960947867298579,-17.53554502369668,151.73635071090047
606,1715781911730,0.69,0.41,-0.01,-8.18,-23.379999999999995,145.51
607,1715781911740,0.69,0.41,-0.01,-8.18,-23.38,145.51
608,1715781911750,0.6900000000000001,0.41000000000000003,-0.01,-8.18,-23.38,145.51
609,1715781911760,0.8396103896103896,0.2659307359307359,0.017705627705627704,-5.227662337662338,2.459826839826841,152.4207792207792
610,1715781911770,0.96,0.15,0.04,-2.81,23.62,158.08
611,1715781911780,0.96,0.15,0.039999999999999994,-2.8099999999999996,23.62,158.08
612,1715781911790,0.96,0.15,0.04,-2.81,23.62,158.08
613,1715781911800,0.76,0.22,-0.03,4.010695652173912,-22.182434782608695,147.0373913043478
614,1715781911810,0.76,0.22,-0.03,4.88,-28.02,145.63
615,1715781911820,0.76,0.22,-0.03,4.88,-28.02,145.63
616,1715781911830,0.8110169491525424,0.17809322033898306,-0.02271186440677966,5.874067796610169,-25.67029661016949,147.30139830508475
617,1715781911840,1.04,-0.009999999999999998,0.009999999999999998,15.08,-3.91,162.78
618,1715781911850,1.04,-0.009999999999999998,0.009999999999999998,15.08,-3.91,162.78
619,1715781911860,1.04,-0.01,0.01,15.079999999999998,-3.9099999999999997,162.77999999999997
620,1715781911870,1.0006511627906975,-0.0012558139534883722,-0.03809302325581396,13.15,-6.864,159.546
621,1715781911880,0.95,0.01,-0.1,5.43,-18.68,146.61
622,1715781911890,0.95,0.01,-0.1,5.43,-18.68,146.61
623,1715781911900,0.95,0.01,-0.1,5.43,-18.68,146.60999999999999
624,1715781911910,1.0617370892018778,-0.08497652582159625,-0.03854460093896714,3.4307981220657275,-18.53882629107981,142.43854460093897
625,1715781911920,1.15,-0.16,0.01,1.04,-18.37,137.45
626,1715781911930,1.15,-0.16,0.01,1.04,-18.37,137.45
627,1715781911940,1.15,-0.16,0.01,1.04,-18.37,137.45
628,1715781911950,1.0790582959641255,-0.17013452914798205,-0.035605381165919284,5.545112107623318,17.404708520179373,139.4137668161435
629,1715781911960,1.01,-0.18,-0.08,10.01,52.86,141.36
630,1715781911970,1.01,-0.18000000000000002,-0.08,10.01,52.86,141.36
631,1715781911980,1.01,-0.18,-0.08,10.01,52.86,141.36
632,1715781911990,0.9297095435684647,-0.18892116182572616,-0.06215767634854772,3.88253112033195,29.096016597510374,134.72016597510375
633,1715781912000,0.92,-0.19,-0.06,-7.57,-15.319999999999999,122.30999999999999
634,1715781912010,0.92,-0.19000000000000003,-0.06,-7.57,-15.32,122.31
635,1715781912020,0.9199999999999999,-0.19,-0.06,-7.57,-15.32,122.31
636,1715781912030,1.0564125560538118,-0.4552466367713005,0.030941704035874436,13.846771300448433,31.765067264573993,134.20062780269058
637,1715781912040,1.1,-0.54,0.06,20.69,46.81,138.0
638,1715781912050,1.1,-0.54,0.06,20.69,46.81,138.0
639,1715781912060,0.9781376518218624,-0.4251012145748988,-0.027044534412955467,19.2934008097166,42.300526315789476,142.8994331983806
640,1715781912070,0.75,-0.21,-0.19,14.53,26.92,159.61
641,1715781912080,0.75,-0.21,-0.19,14.53,26.92,159.61
642,1715781912090,0.75,-0.21,-0.19,14.53,26.92,159.61
643,1715781912100,0.8842533936651583,-0.31927601809954753,-0.10257918552036199,6.114615384615385,13.621538461538462,150.14538461538464
644,1715781912110,1.18,-0.56,0.09,-12.82,-16.3,128.85
645,1715781912120,1.18,-0.56,0.09,-12.82,-16.3,128.85
646,1715781912130,1.18,-0.56,0.09,-12.82,-16.3,128.85
647,1715781912140,1.1740860215053763,-0.5422580645161291,0.007204301075268815,-9.882724014336919,5.479211469534048,127.52526881720429
648,1715781912150,1.17,-0.53,-0.05,-5.37,38.94,125.49
649,1715781912160,1.17,-0.53,-0.05,-5.37,38.94,125.49
650,1715781912170,1.17,-0.53,-0.05,-5.37,38.94,125.48999999999998
651,1715781912180,1.1585972850678732,-0.5699095022624434,-0.02719457013574661,-12.519321266968326,18.051990950226244,110.26375565610859
652,1715781912190,1.15,-0.6,-0.01,-18.01,2.01,98.57000000000001
653,1715781912200,1.15,-0.6,-0.01,-18.01,2.01,98.57
654,1715781912210,,,,,,
655,1715781912220,1.1787999999999998,-0.648,0.0188,-11.7316,11.331600000000002,85.56199999999998
656,1715781912230,1.18,-0.65,0.02,-11.47,11.72,85.02
657,1715781912240,1.18,-0.65,0.02,-11.47,11.72,85.02
658,1715781912250,1.18,-0.65,0.02,-11.47,11.72,85.02
659,1715781912260,1.2,-0.67,0.01,-9.984414414414415,-3.10963963963964,72.86441441441441
660,1715781912270,1.2,-0.67,0.01,-9.77,-5.25,71.11
661,1715781912280,1.2,-0.67,0.01,-9.77,-5.25,71.11
662,1715781912290,1.2,-0.6700000000000002,0.01,-9.77,-5.25,71.11
663,1715781912300,1.174375,-0.61875,-0.015625,0.40677083333333336,14.285625000000001,52.81697916666667
664,1715781912310,1.17,-0.61,-0.02,3.17,19.59,47.85
665,1715781912320,1.17,-0.61,-0.02,3.17,19.59,47.85
666,1715781912330,1.1623144104803491,-0.6292139737991267,-0.012314410480349345,1.969301310043668,17.13480349344978,44.84213973799127
667,1715781912340,1.15,-0.66,0.0,-6.65,-0.49,23.25
668,1715781912350,1.15,-0.66,0.0,-6.65,-0.49,23.25
669,1715781912360,1.15,-0.66,0.0,-6.65,-0.49000000000000005,23.25
670,1715781912370,1.1463436123348016,-0.6563436123348018,0.003656387665198238,-5.088722466960353,1.967092511013216,15.619118942731278
671,1715781912380,1.14,-0.65,0.01,-2.38,6.23,2.38
672,1715781912390,1.14,-0.6500000000000001,0.01,-2.38,6.23,2.38
673,1715781912400,1.1462790697674419,-0.6583720930232558,0.005813953488372093,-2.2797209302325583,5.966,-1.9033488372093024
674,1715781912410,1.17,-0.69,-0.01,-1.89,4.94,-18.55
675,1715781912420,1.17,-0.69,-0.01,-1.89,4.94,-18.55
676,1715781912430,1.17,-0.69,-0.01,-1.89,4.94,-18.55
677,1715781912440,1.1397560975609755,-0.6698373983739837,8.130081300813008e-05,-1.435,4.21,-30.514999999999997
678,1715781912450,1.11,-0.65,0.01,-0.98,3.48,-42.48
679,1715781912460,1.11,-0.65,0.01,-0.98,3.4799999999999995,-42.48
680,1715781912470,1.11,-0.6500000000000001,0.01,-0.98,3.48,-42.480000000000004
681,1715781912480,1.0984,-0.6325999999999999,0.01,-1.1179999999999999,3.549,-51.18549999999999
682,1715781912490,1.09,-0.62,0.01,-1.22,3.6,-57.62
683,1715781912500,1.09,-0.62,0.01,-1.22,3.6,-57.61999999999999
684,1715781912510,1.1098765432098767,-0.6133744855967078,-0.016502057613168725,-0.48106995884773657,6.561234567901235,-63.30534979423869
685,1715781912520,1.12,-0.61,-0.029999999999999995,0.11999999999999998,8.97,-67.93
686,1715781912530,1.12,-0.61,-0.03,0.12,8.97,-67.93
687,1715781912540,1.12,-0.61,-0.03,0.12,8.97,-67.93
688,1715781912550,1.1492990654205606,-0.6588317757009347,-0.0007009345794392523,-5.735887850467289,5.388644859813084,-85.70443925233644
689,1715781912560,1.15,-0.66,0.0,-6.96,4.64,-89.42
690,1715781912570,1.15,-0.66,0.0,-6.96,4.64,-89.42
691,1715781912580,1.1504761904761904,-0.6585714285714286,-0.0004761904761904762,-6.96,4.64,-89.42
692,1715781912590,1.17,-0.6,-0.02,-2.401466666666667,0.3870666666666666,-105.21782222222222
693,1715781912600,1.17,-0.5999999999999999,-0.02,-1.59,-0.37,-108.03
694,1715781912610,1.17,-0.6,-0.02,-1.5899999999999999,-0.36999999999999994,-108.03000000000002
695,1715781912620,1.1672469635627531,-0.597246963562753,-0.015870445344129555,-1.59,-0.37,-108.03
696,1715781912630,1.15,-0.58,0.01,-1.0421400778210117,5.467198443579767,-125.72089494163424
697,1715781912640,1.15,-0.58,0.01,-1.04,5.49,-125.79
698,1715781912650,1.15,-0.5799999999999998,0.01,-1.04,5.49,-125.79
699,1715781912660,1.144,-0.5619999999999999,0.006,-1.04,5.49,-125.79
700,1715781912670,1.12,-0.49,-0.01,-0.2544144144144144,11.008738738738739,-135.07954954954954
701,1715781912680,1.12,-0.49,-0.01,-0.24,11.11,-135.25
702,1715781912690,1.12,-0.49,-0.01,-0.23999999999999996,11.109999999999998,-135.25
703,1715781912700,1.1088793103448278,-0.4714655172413793,-0.006293103448275862,-1.6313793103448277,7.590172413793103,-139.40344827586208
704,1715781912710,1.09,-0.44000000000000006,0.0,-5.62,-2.5,-151.31
705,1715781912720,1.09,-0.44,0.0,-5.62,-2.5,-151.31
706,1715781912730,1.09,-0.44,0.0,-5.62,-2.5,-151.31
707,1715781912740,1.116595744680851,-0.4187234042553192,-0.005319148936170213,-4.558723404255319,-2.4890212765957447,-151.97970212765958
708,1715781912750,1.14,-0.4,-0.01,0.18,-2.44,-154.97
709,1715781912760,1.14,-0.4,-0.010000000000000002,0.18,-2.4399999999999995,-154.96999999999997
710,1715781912770,1.14,-0.4,-0.01,0.18,-2.44,-154.97
711,1715781912780,1.0962549800796815,-0.29792828685258965,-0.01,1.0974501992031873,4.241035856573705,-158.9350199203187
712,1715781912790,1.08,-0.26,-0.01,2.2,12.27,-163.7
713,1715781912800,1.08,-0.26,-0.01,2.2,12.27,-163.7
714,1715781912810,1.08,-0.26,-0.01,2.2,12.27,-163.7
715,1715781912820,1.0510958904109589,-0.20219178082191783,0.018904109589041096,2.5602283105022834,8.991187214611871,-166.75091324200912
716,1715781912830,1.05,-0.2,0.02,2.69,7.81,-167.85
717,1715781912840,1.05,-0.20000000000000004,0.02,2.69,7.81,-167.85
718,1715781912850,1.0376923076923077,-0.18615384615384617,0.018461538461538463,2.69,7.81,-167.85
719,1715781912860,0.9700000000000001,-0.11,0.01,2.8740414507772023,6.782435233160622,-169.95113989637306
720,1715781912870,0.97,-0.10999999999999999,0.01,2.93,6.47,-170.59
721,1715781912880,0.97,-0.11,0.01,2.93,6.47,-170.59
722,1715781912890,0.953710407239819,-0.06438914027149321,0.006742081447963801,2.9300000000000006,6.47,-170.59
723,1715781912900,0.92,0.03,0.0,5.829514563106796,3.737427184466019,-169.94859223300972
724,1715781912910,0.92,0.03,0.0,6.23,3.3599999999999994,-169.86
725,1715781912920,0.9200000000000002,0.029999999999999995,0.0,6.2299999999999995,3.36,-169.86
726,1715781912930,0.8784913793103448,0.08073275862068965,0.009224137931034482,5.494827586206897,2.9075862068965517,-169.5136206896552
727,1715781912940,0.83,0.14,0.02,4.15,2.08,-168.88
728,1715781912950,0.83,0.14,0.02,4.15,2.08,-168.88
729,1715781912960,0.83,0.14,0.02,4.15,2.08,-168.88
730,1715781912970,0.7680753138075314,0.19573221757322176,0.007615062761506276,5.373849372384938,2.3786192468619247,-165.95255230125525
731,1715781912980,0.73,0.22999999999999998,0.0,6.65,2.69,-162.9
732,1715781912990,0.73,0.23,0.0,6.65,2.6899999999999995,-162.9
733,1715781913000,0.73,0.23,0.0,6.65,2.69,-162.9
734,1715781913010,0.73,0.3044791666666667,0.014895833333333332,7.66,-0.45500000000000007,-158.02
735,1715781913020,0.73,0.33,0.02,8.67,-3.6,-153.14
736,1715781913030,0.73,0.33,0.02,8.67,-3.6,-153.14
737,1715781913040,0.73,0.33,0.019999999999999997,8.67,-3.6,-153.14
738,1715781913050,0.6494029850746268,0.4347761194029851,-0.004179104477611941,6.712537313432836,-1.2494402985074629,-145.5989552238806
739,1715781913060,0.63,0.46,-0.01,6.23,-0.67,-143.74
740,1715781913070,0.63,0.46,-0.01,6.23,-0.67,-143.74
741,1715781913080,0.615375,0.474625,-0.01,6.23,-0.67,-143.74000000000004
742,1715781913090,0.54,0.55,-0.01,4.425736434108527,-5.1901550387596895,-133.01887596899223
743,1715781913100,0.54,0.55,-0.01,4.33,-5.43,-132.45
744,1715781913110,0.54,0.55,-0.01,4.33,-5.43,-132.45
745,1715781913120,0.5295652173913044,0.5621739130434783,-0.01173913043478261,3.333478260869565,-7.287391304347826,-131.25
746,1715781913130,0.48,0.62,-0.02,-1.4,-16.11,-125.55
747,1715781913140,0.48,0.62,-0.02,-1.4,-16.11,-125.54999999999998
748,1715781913150,0.48,0.62,-0.02,-1.4,-16.11,-125.55
749,1715781913160,0.47097744360902255,0.6606015037593985,-0.02,-4.345526315789473,-18.15578947368421,-124.46552631578948
750,1715781913170,0.46,0.71,-0.02,-10.01,-22.09,-122.38
751,1715781913180,0.46,0.71,-0.02,-10.01,-22.09,-122.38
752,1715781913190,0.46,0.71,-0.02,-10.01,-22.09,-122.38
753,1715781913200,0.4666666666666666,0.7033333333333333,0.013333333333333332,-7.615992509363296,-19.494794007490636,-119.22449438202247
754,1715781913210,0.47,0.7,0.03,-0.61,-11.9,-109.99
755,1715781913220,0.47,0.7,0.03,-0.61,-11.9,-109.99
756,1715781913230,0.47,0.7,0.03,-0.61,-11.9,-109.99
757,1715781913240,0.4321212121212121,0.7606060606060605,-0.00030303030303030346,0.3784415584415584,-7.979740259740259,-109.64376623376623
758,1715781913250,0.42,0.78,-0.01,1.16,-4.88,-109.37000000000002
759,1715781913260,0.42,0.7800000000000001,-0.01,1.16,-4.88,-109.37
760,1715781913270,0.42,0.78,-0.01,1.16,-4.88,-109.37
761,1715781913280,0.3795132743362832,0.7961946902654867,-0.04238938053097345,5.022433628318585,1.1704424778761064,-106.75283185840708
762,1715781913290,0.37,0.8,-0.05,6.65,3.72,-105.65
763,1715781913300,0.37,0.8,-0.05,6.65,3.7200000000000006,-105.65
764,1715781913310,0.36999999999999994,0.8,-0.05,6.65,3.72,-105.65
765,1715781913320,0.26139830508474576,0.8888559322033899,-0.0697457627118644,9.10822033898305,10.377330508474577,-101.53059322033899
766,1715781913330,0.26,0.89,-0.07,12.51,19.59,-95.83
767,1715781913340,0.26,0.89,-0.07,12.51,19.590000000000003,-95.83
768,1715781913350,0.2560504201680672,0.8959243697478992,-0.07987394957983195,11.57420168067227,18.895210084033614,-94.8629411764706
769,1715781913360,0.24,0.92,-0.12,3.23,12.7,-86.24
770,1715781913370,0.24,0.92,-0.12,3.23,12.7,-86.24
771,1715781913380,0.24,0.92,-0.12,3.23,12.7,-86.24
772,1715781913390,0.2043103448275862,0.931896551724138,-0.10512931034482759,3.2466810344827586,12.067672413793103,-86.16202586206897
773,1715781913400,0.12,0.96,-0.07,3.66,-3.6,-84.23
774,1715781913410,0.12,0.96,-0.07,3.66,-3.6,-84.23
775,1715781913420,0.12,0.96,-0.07,3.66,-3.6,-84.23
776,1715781913430,0.03003533568904593,0.9884098939929328,-0.060530035335689056,7.05148409893993,11.674911660777383,-82.17696113074206
777,1715781913440,-0.07,1.02,-0.05,12.63,36.8,-78.8
778,1715781913450,-0.07,1.02,-0.05,12.63,36.8,-78.8
779,1715781913460,-0.07,1.02,-0.05,12.63,36.8,-78.8
780,1715781913470,-0.21594377510040158,1.0453815261044177,-0.09441767068273092,13.17714859437751,53.146064257028115,-63.12734939759036
781,1715781913480,-0.3,1.06,-0.12,13.67,67.87,-49.01
782,1715781913490,-0.3,1.06,-0.12,13.67,67.87,-49.01
783,1715781913500,-0.3,1.06,-0.12,13.67,67.87,-49.01
784,1715781913510,-0.365,1.1087500000000001,-0.144375,6.468203125,27.993515625,-29.00421875
785,1715781913520,-0.38,1.12,-0.15,3.54,11.78,-20.87
786,1715781913530,-0.38,1.12,-0.15,3.54,11.78,-20.87
787,1715781913540,-0.38,1.12,-0.15,3.54,11.78,-20.87
788,1715781913550,-0.2400873362445415,1.065589519650655,-0.08004366812227073,-7.132227074235808,0.5325764192139737,5.122663755458515
789,1715781913560,-0.2,1.05,-0.06,-10.19,-2.69,12.57
790,1715781913570,-0.2,1.05,-0.06,-10.19,-2.69,12.57
791,1715781913580,-0.19696969696969696,1.0494318181818183,-0.0590530303030303,-10.097575757575756,-2.933181818181818,12.807727272727274
792,1715781913590,-0.04000000000000001,1.02,-0.010000000000000002,-4.09,-18.74,28.26
793,1715781913600,-0.04,1.02,-0.01,-4.09,-18.74,28.26
794,1715781913610,-0.04,1.02,-0.01,-4.09,-18.74,28.26
795,1715781913620,-0.02711610486891386,1.0167790262172285,-0.003558052434456929,-1.4738951310861421,-12.416029962546814,30.033595505617978
796,1715781913630,0.0,1.01,0.01,8.61,11.96,36.87
797,1715781913640,0.0,1.01,0.01,8.61,11.96,36.87
798,1715781913650,0.0,1.01,0.010000000000000002,8.61,11.96,36.87
799,1715781913660,-0.027675276752767528,1.0146125461254611,-0.022287822878228784,10.335239852398523,24.52346863468635,42.98708487084871
800,1715781913670,-0.06,1.02,-0.06,13.43,47.06,53.96
801,1715781913680,-0.06,1.02,-0.06,13.43,47.06,53.96
802,1715781913690,-0.06,1.02,-0.06,13.43,47.06,53.96
803,1715781913700,-0.06,0.9781538461538462,-0.09661538461538462,14.831846153846152,44.05753846153846,67.65415384615385
804,1715781913710,-0.060000000000000005,0.94,-0.13,16.11,41.32000000000001,80.14000000000001
805,1715781913720,-0.06,0.94,-0.13,16.11,41.32,80.14
806,1715781913730,-0.05999999999999999,0.94,-0.13,16.11,41.32,80.14
807,1715781913740,-0.009534883720930233,0.9147674418604651,-0.14682170542635656,-3.4855038759689916,7.039147286821706,91.98302325581395
808,1715781913750,0.0,0.91,-0.15,-9.95,-4.27,95.88999999999999
809,1715781913760,0.0,0.91,-0.15,-9.95,-4.27,95.89
810,1715781913770,0.0,0.91,-0.15,-9.95,-4.27,95.89
811,1715781913780,0.21733944954128442,0.796605504587156,-0.06495412844036698,-12.833853211009176,-18.288532110091744,109.95146788990827
812,1715781913790,0.23,0.79,-0.06,-13.979999999999999,-23.86,115.54
813,1715781913800,0.23,0.7900000000000001,-0.05999999999999999,-13.98,-23.86,115.54
814,1715781913810,0.24115999999999999,0.78876,-0.06372,-13.98,-23.86,115.54
815,1715781913820,0.32,0.78,-0.09,-8.989529411764705,8.21878431372549,126.89898039215686
816,1715781913830,0.32,0.78,-0.09,-8.91,8.73,127.08
817,1715781913840,0.32,0.78,-0.09,-8.91,8.73,127.08
818,1715781913850,0.33680851063829786,0.7463829787234043,-0.08439716312056737,-11.37581560283688,3.9111347517730497,127.57241134751773
819,1715781913860,0.38,0.66,-0.07,-22.03,-16.91,129.7
820,1715781913870,0.38,0.66,-0.07,-22.03,-16.91,129.7
821,1715781913880,0.38,0.66,-0.07,-22.03,-16.91,129.7
822,1715781913890,0.42771653543307087,0.6440944881889764,-0.05409448818897638,-23.812992125984252,-30.05708661417323,129.94094488188978
823,1715781913900,0.5,0.62,-0.03,-28.32,-63.29,130.55
824,1715781913910,0.5,0.62,-0.029999999999999995,-28.32,-63.29,130.55
825,1715781913920,0.5,0.62,-0.03,-28.32,-63.29,130.55
826,1715781913930,0.6708015267175572,0.4833587786259542,-0.0026717557251908393,-16.63354961832061,-43.2856106870229,134.77786259541986
827,1715781913940,0.75,0.42,0.009999999999999998,3.91,-8.12,142.21
828,1715781913950,0.75,0.42,0.01,3.91,-8.12,142.21
829,1715781913960,0.75,0.42,0.01,3.91,-8.12,142.21
830,1715781913970,0.7000403225806452,0.44854838709677425,-0.06850806451612904,-0.7762903225806451,-26.24241935483871,141.2916129032258
831,1715781913980,0.68,0.46,-0.1,-3.54,-36.93000000000001,140.75
832,1715781913990,0.68,0.46,-0.1,-3.54,-36.93,140.75
833,1715781914000,0.68,0.46,-0.1,-3.54,-36.93,140.75
834,1715781914010,0.8463675213675212,0.3621367521367521,-0.011923076923076923,15.143076923076924,-14.89102564102564,127.12948717948719
835,1715781914020,0.85,0.36,-0.01,19.23,-10.07,124.15
836,1715781914030,0.85,0.36,-0.01,19.23,-10.070000000000002,124.15
837,1715781914040,0.8489928057553956,0.3519424460431655,-0.026115107913669066,19.23,-10.07,124.15000000000002
838,1715781914050,0.8400000000000001,0.28,-0.17,5.804238095238095,-9.771428571428572,151.1209523809524
839,1715781914060,0.84,0.28,-0.17,5.74,-9.77,151.25
840,1715781914070,0.84,0.28,-0.17,5.74,-9.77,151.25
841,1715781914080,0.8585496183206107,0.2738167938931298,-0.13599236641221374,7.776259541984733,-10.897290076335878,143.91946564885498
842,1715781914090,0.9,0.26,-0.06,15.44,-15.14,116.33
843,1715781914100,0.9,0.26,-0.06,15.44,-15.14,116.33
844,1715781914110,0.9,0.26,-0.06,15.44,-15.14,116.33
845,1715781914120,0.93,0.20857142857142857,-0.12000000000000001,16.552857142857142,14.15547619047619,129.04325396825396
846,1715781914130,0.97,0.14,-0.2,18.86,74.89000000000001,155.4
847,1715781914140,0.9699999999999999,0.14,-0.2,18.86,74.89,155.4
848,1715781914150,0.97,0.14,-0.2,18.86,74.89,155.4
849,1715781914160,0.9219762845849802,0.15600790513833995,-0.15731225296442686,10.834703557312253,37.55529644268775,137.44553359683795
850,1715781914170,0.88,0.17,-0.12,0.06,-12.57,113.34
851,1715781914180,0.88,0.17,-0.12,0.06,-12.57,113.34
852,1715781914190,0.88,0.17,-0.12,0.06,-12.57,113.34
853,1715781914200,1.1352459016393444,-0.028524590163934424,-0.05618852459016393,4.487254098360655,14.884918032786887,122.59266393442623
854,1715781914210,1.2400000000000002,-0.10999999999999999,-0.03,7.51,33.63,128.91
855,1715781914220,1.24,-0.11,-0.03,7.51,33.63,128.91
856,1715781914230,1.24,-0.11,-0.030000000000000002,7.51,33.63,128.91
857,1715781914240,0.804,0.07956521739130436,-0.12478260869565216,8.777173913043478,45.71543478260869,129.02347826086958
858,1715781914250,0.78,0.09,-0.13,9.52,52.8,129.09
859,1715781914260,0.78,0.09,-0.13,9.52,52.8,129.09
860,1715781914270,0.78,0.09,-0.13,9.52,52.8,129.09
861,1715781914280,1.2114728682170544,-0.26302325581395347,0.036705426356589146,-12.56356589147287,2.5824418604651163,114.12573643410852
862,1715781914290,1.22,-0.27,0.04,-13.0,1.59,113.83
863,1715781914300,1.22,-0.27,0.04,-13.0,1.59,113.83
864,1715781914310,1.22,-0.27,0.04,-13.0,1.59,113.83
865,1715781914320,0.9843404255319149,-0.13404255319148936,-0.014382978723404254,18.772936170212763,72.66863829787233,121.81382978723404
866,1715781914330,0.96,-0.12,-0.02,22.22,80.38,122.68
867,1715781914340,0.96,-0.12,-0.02,22.22,80.38,122.68
868,1715781914350,0.96,-0.12,-0.02,22.22,80.38,122.68
