id,timestamp,acc_x,acc_y,acc_z,gyro_x,gyro_y,gyro_z
1.0,2024-05-10 14:37:30.445146624,1.75,-0.8699999999999999,0.11000000000000001,-23.68,-111.94,44.8
1.0,2024-05-10 14:37:30.454940160,1.75,-0.87,0.11,-23.68,-111.94,44.8
1.0,2024-05-10 14:37:30.464676096,1.0090588235294118,-0.37341176470588233,-0.39447058823529413,-9.728235294117647,80.31058823529412,75.73823529411764
1.0,2024-05-10 14:37:30.474951936,0.8099999999999999,-0.24,-0.53,-5.9799999999999995,131.96,84.05
1.0,2024-05-10 14:37:30.484445184,0.81,-0.24,-0.53,-5.98,131.96,84.05
1.0,2024-05-10 14:37:30.494491136,0.833591836734694,-0.2677551020408163,-0.47310204081632656,-5.98,131.96,84.05
1.0,2024-05-10 14:37:30.504925440,0.98,-0.44,-0.12,-26.482178988326847,42.444280155642026,22.696147859922178
1.0,2024-05-10 14:37:30.514827264,0.98,-0.44,-0.12,-30.15,26.430000000000003,11.72
1.0,2024-05-10 14:37:30.524889856,0.98,-0.44,-0.12,-30.15,26.43,11.72
1.0,2024-05-10 14:37:30.535470336,0.9462857142857143,-0.38702040816326533,-0.16093877551020408,-23.427142857142854,32.54142857142857,13.891428571428571
1.0,2024-05-10 14:37:30.545099264,0.84,-0.22,-0.29,16.91,69.21,26.92
1.0,2024-05-10 14:37:30.554934016,0.84,-0.22,-0.29,16.91,69.21,26.92
1.0,2024-05-10 14:37:30.565036544,0.84,-0.22,-0.29,16.91,69.21,26.92
1.0,2024-05-10 14:37:30.575011072,0.9330851063829787,-0.24978723404255318,-0.23042553191489362,6.528723404255319,51.59524822695035,22.066241134751774
1.0,2024-05-10 14:37:30.585029376,1.09,-0.3,-0.13,-21.61,3.85,8.91
1.0,2024-05-10 14:37:30.594629632,1.09,-0.3,-0.13,-21.61,3.85,8.91
1.0,2024-05-10 14:37:30.604802304,1.09,-0.3,-0.13,-21.61,3.8500000000000005,8.91
1.0,2024-05-10 14:37:30.615049472,1.038555133079848,-0.29064638783269964,-0.1767680608365019,-12.486806083650189,14.611596958174905,9.082091254752852
1.0,2024-05-10 14:37:30.625070080,0.98,-0.28,-0.23,17.09,49.5,9.64
1.0,2024-05-10 14:37:30.635121408,0.98,-0.28,-0.23,17.09,49.5,9.64
1.0,2024-05-10 14:37:30.645415680,0.98,-0.28,-0.23,17.09,49.5,9.64
1.0,2024-05-10 14:37:30.654941184,1.0419028340080974,-0.28562753036437244,-0.17372469635627533,3.1469230769230774,38.4,2.4030769230769233
1.0,2024-05-10 14:37:30.664884992,1.09,-0.29,-0.13,-13.12,25.45,-6.04
1.0,2024-05-10 14:37:30.674994176,1.09,-0.29,-0.13,-13.12,25.45,-6.04
1.0,2024-05-10 14:37:30.685178112,1.09,-0.29,-0.13,-13.12,25.45,-6.04
1.0,2024-05-10 14:37:30.694903552,1.018,-0.338,-0.178,-11.888958333333333,34.38791666666667,-0.1935416666666665
1.0,2024-05-10 14:37:30.705109760,0.97,-0.37,-0.21,-10.01,48.03,8.73
1.0,2024-05-10 14:37:30.715025408,0.97,-0.37,-0.21,-10.01,48.03,8.73
1.0,2024-05-10 14:37:30.724676352,0.97,-0.37,-0.21,-10.01,48.03,8.73
1.0,2024-05-10 14:37:30.734588672,1.1720253164556962,-0.3988607594936709,-0.080126582278481,-5.491012658227848,28.175569620253164,-5.485189873417721
1.0,2024-05-10 14:37:30.744642560,1.25,-0.41,-0.03,-2.87,16.66,-13.73
1.0,2024-05-10 14:37:30.754720000,1.25,-0.41,-0.03,-2.87,16.66,-13.73
1.0,2024-05-10 14:37:30.764678144,1.25,-0.41,-0.03,-2.87,16.66,-13.73
1.0,2024-05-10 14:37:30.774894336,1.104136546184739,-0.5832128514056225,-0.09381526104417671,-34.76301204819277,59.50196787148594,33.53883534136546
1.0,2024-05-10 14:37:30.784966912,1.09,-0.6,-0.1,-41.99,69.21,44.25
1.0,2024-05-10 14:37:30.794747648,1.09,-0.6,-0.1,-41.99,69.21,44.25
1.0,2024-05-10 14:37:30.804763392,1.1642049469964666,-0.6830388692579505,-0.07879858657243817,-42.903074204946996,70.57060070671378,45.8743109540636
1.0,2024-05-10 14:37:30.815152128,1.51,-1.07,0.02,-57.19,91.86,71.29
1.0,2024-05-10 14:37:30.825063168,1.51,-1.07,0.02,-57.19,91.86,71.29
1.0,2024-05-10 14:37:30.835315200,1.51,-1.07,0.02,-57.19,91.86,71.29
1.0,2024-05-10 14:37:30.845364480,1.2719047619047619,-1.0382539682539682,-0.04349206349206349,-51.208333333333336,117.29166666666667,87.36166666666668
1.0,2024-05-10 14:37:30.855196928,0.76,-0.97,-0.18,-21.3,244.45,167.72
1.0,2024-05-10 14:37:30.865136896,0.76,-0.9699999999999999,-0.18,-21.3,244.44999999999996,167.72
1.0,2024-05-10 14:37:30.874885376,0.76,-0.97,-0.18,-21.3,244.45,167.72000000000003
1.0,2024-05-10 14:37:30.884482304,0.822377358490566,-0.9929811320754717,-0.16686792452830188,1.5226415094339623,210.682679245283,154.3748679245283
1.0,2024-05-10 14:37:30.894810880,0.95,-1.04,-0.14,90.7,78.74,102.23
1.0,2024-05-10 14:37:30.904956416,0.95,-1.04,-0.14,90.7,78.74,102.23
1.0,2024-05-10 14:37:30.914955776,0.95,-1.04,-0.14,90.7,78.74,102.23
1.0,2024-05-10 14:37:30.924575232,0.7358,-0.8804,-0.161,104.46144,32.4168,25.307
1.0,2024-05-10 14:37:30.934905344,0.44,-0.66,-0.19,135.38,-71.66,-147.52
1.0,2024-05-10 14:37:30.945044224,0.44,-0.66,-0.19,135.38,-71.66,-147.52
1.0,2024-05-10 14:37:30.955306752,0.44,-0.66,-0.19,135.38,-71.66,-147.52
1.0,2024-05-10 14:37:30.965210624,0.8182307692307693,-0.7516923076923077,-0.018076923076923077,126.36788461538463,-69.60684615384615,-129.67553846153845
1.0,2024-05-10 14:37:30.975439104,1.1,-0.82,0.11,116.33,-67.32,-109.8
1.0,2024-05-10 14:37:30.985824512,1.1,-0.82,0.11,116.33,-67.32,-109.8
1.0,2024-05-10 14:37:30.994916096,1.1,-0.82,0.11,116.33,-67.32,-109.8
1.0,2024-05-10 14:37:31.004951808,0.8522267206477733,-0.3317408906882591,-0.02846153846153846,119.35222672064778,-34.44348178137651,-108.65987854251011
1.0,2024-05-10 14:37:31.014892544,0.76,-0.15,-0.08,121.34,-12.82,-107.91
1.0,2024-05-10 14:37:31.024439808,0.76,-0.15,-0.08000000000000002,121.34,-12.82,-107.91
1.0,2024-05-10 14:37:31.034941440,0.76,-0.15,-0.08,121.34,-12.82,-107.91
1.0,2024-05-10 14:37:31.044994560,0.8147685185185184,-0.36125,0.15472222222222223,102.26361111111112,-66.86166666666666,-114.2711111111111
1.0,2024-05-10 14:37:31.054552064,0.83,-0.42,0.22,93.87,-90.64,-117.07
1.0,2024-05-10 14:37:31.064859904,0.83,-0.42,0.22,93.87,-90.64,-117.07
1.0,2024-05-10 14:37:31.075452416,0.82986301369863,-0.4184474885844749,0.21858447488584473,93.87,-90.64,-117.07
1.0,2024-05-10 14:37:31.085265408,0.8,-0.08,-0.09,148.1952336448598,-90.09271028037384,-97.45728971962616
1.0,2024-05-10 14:37:31.094598144,0.8,-0.08,-0.09,154.42,-90.03,-95.21
1.0,2024-05-10 14:37:31.105027840,0.8,-0.08,-0.09,154.42,-90.03,-95.21
1.0,2024-05-10 14:37:31.115463680,0.8,-0.08,-0.09,154.42,-90.03,-95.21
1.0,2024-05-10 14:37:31.125112320,0.8750420168067228,-0.04445378151260504,-0.07815126050420167,168.9209663865546,-101.52605042016808,-92.23243697478992
1.0,2024-05-10 14:37:31.134768384,0.99,0.01,-0.05999999999999999,191.53,-119.45,-87.59
1.0,2024-05-10 14:37:31.144693504,0.99,0.01,-0.06,191.53,-119.45,-87.59
1.0,2024-05-10 14:37:31.154776320,1.0276284584980238,0.1067588932806324,-0.05193675889328063,193.6217391304348,-108.9509881422925,-86.65466403162056
1.0,2024-05-10 14:37:31.164949504,1.13,0.37,-0.03,222.66,36.8,-73.67
1.0,2024-05-10 14:37:31.174988800,1.13,0.37,-0.03,222.66,36.8,-73.67
1.0,2024-05-10 14:37:31.184820736,1.13,0.37,-0.03,222.66,36.8,-73.67
1.0,2024-05-10 14:37:31.194654720,0.9704999999999999,0.5246666666666666,-0.2813333333333334,210.12666666666667,27.914666666666665,-85.76333333333334
1.0,2024-05-10 14:37:31.205251328,0.8,0.69,-0.55,175.66,3.48,-119.02
1.0,2024-05-10 14:37:31.215152128,0.8,0.69,-0.55,175.66,3.48,-119.02
1.0,2024-05-10 14:37:31.225042688,0.8,0.69,-0.55,175.66,3.48,-119.02
1.0,2024-05-10 14:37:31.235257344,0.799327731092437,0.7037815126050421,-0.5550420168067228,173.87915966386555,4.866890756302521,-119.98638655462184
1.0,2024-05-10 14:37:31.245249792,0.78,1.1,-0.7,122.68,44.74,-147.77
1.0,2024-05-10 14:37:31.255106560,0.78,1.1,-0.7,122.68,44.74,-147.77
1.0,2024-05-10 14:37:31.264877568,0.78,1.1,-0.7,122.68,44.74,-147.77
1.0,2024-05-10 14:37:31.274630144,0.7359493670886077,1.1227848101265823,-0.7167088607594936,115.58784810126582,42.36658227848102,-147.1532911392405
1.0,2024-05-10 14:37:31.285018368,0.2,1.4,-0.92,29.3,13.49,-139.65
1.0,2024-05-10 14:37:31.295140864,0.2,1.4,-0.92,29.3,13.49,-139.65
1.0,2024-05-10 14:37:31.304724224,0.2,1.4,-0.92,29.3,13.49,-139.65
1.0,2024-05-10 14:37:31.314893568,0.36389105058365756,1.2613229571984435,-0.6132295719844357,3.7245914396887168,-21.032178988326848,-83.2714785992218
1.0,2024-05-10 14:37:31.324773632,0.59,1.07,-0.19,-31.560000000000002,-68.66,-5.49
1.0,2024-05-10 14:37:31.334554112,0.59,1.07,-0.19,-31.56,-68.66,-5.49
1.0,2024-05-10 14:37:31.344617216,0.59,1.07,-0.19,-31.56,-68.66,-5.49
1.0,2024-05-10 14:37:31.354911232,0.8557812499999999,0.937109375,-0.1383203125,-22.5455859375,-69.6566796875,28.3011328125
1.0,2024-05-10 14:37:31.365045504,0.95,0.89,-0.12,-19.35,-70.01,40.28
1.0,2024-05-10 14:37:31.375236096,0.95,0.89,-0.12,-19.35,-70.01,40.28
1.0,2024-05-10 14:37:31.385534976,0.955,0.755,-0.09499999999999999,-24.11,-62.88250000000001,35.04750000000001
1.0,2024-05-10 14:37:31.395017216,0.97,0.35,-0.02,-38.39000000000001,-41.5,19.35
1.0,2024-05-10 14:37:31.404731648,0.9699999999999999,0.35,-0.02,-38.39,-41.5,19.35
1.0,2024-05-10 14:37:31.414973952,0.97,0.35,-0.02,-38.39000000000001,-41.5,19.35
1.0,2024-05-10 14:37:31.425070336,0.926420233463035,0.33754863813229574,-0.07603112840466927,-16.55964980544747,-26.511673151750973,8.747665369649805
1.0,2024-05-10 14:37:31.434911744,0.83,0.31000000000000005,-0.2,31.74,6.65,-14.71
1.0,2024-05-10 14:37:31.444695552,0.83,0.31,-0.2,31.74,6.65,-14.71
1.0,2024-05-10 14:37:31.455064064,0.83,0.31,-0.2,31.74,6.65,-14.71
1.0,2024-05-10 14:37:31.465190400,0.8736134453781512,0.4917226890756303,-0.2072689075630252,13.18327731092437,0.7576050420168068,-16.789369747899162
1.0,2024-05-10 14:37:31.475257856,0.89,0.56,-0.21,-4.76,-4.94,-18.8
1.0,2024-05-10 14:37:31.485177344,0.89,0.56,-0.21,-4.76,-4.94,-18.8
1.0,2024-05-10 14:37:31.494906880,0.89,0.56,-0.21,-4.759999999999999,-4.940000000000001,-18.8
1.0,2024-05-10 14:37:31.504873472,0.9260317460317461,0.4789285714285714,-0.14694444444444446,16.183452380952378,46.135000000000005,-28.636666666666667
1.0,2024-05-10 14:37:31.514856704,0.93,0.47,-0.14,18.49,51.76,-29.72
1.0,2024-05-10 14:37:31.524757504,0.93,0.47,-0.14,18.49,51.76,-29.72
1.0,2024-05-10 14:37:31.534830592,0.9258333333333334,0.4737037037037037,-0.14324074074074075,18.97277777777778,51.87407407407407,-29.561851851851852
1.0,2024-05-10 14:37:31.545074432,0.75,0.63,-0.28,44.56,57.92,-21.18
1.0,2024-05-10 14:37:31.555314432,0.75,0.63,-0.28,44.56,57.92,-21.18
1.0,2024-05-10 14:37:31.565040384,0.75,0.63,-0.28,44.56,57.92,-21.18
1.0,2024-05-10 14:37:31.574947840,0.7746913580246914,0.7040740740740741,-0.28493827160493823,43.43012345679013,57.53415637860083,-20.52880658436214
1.0,2024-05-10 14:37:31.584877312,0.8,0.7800000000000001,-0.29,27.4,52.06,-11.29
1.0,2024-05-10 14:37:31.595297536,0.8,0.78,-0.29,27.4,52.06,-11.29
1.0,2024-05-10 14:37:31.604881664,0.8,0.78,-0.29,27.4,52.06,-11.29
1.0,2024-05-10 14:37:31.614620928,0.758225806451613,0.8008870967741936,-0.2840322580645161,34.486693548387095,67.66862903225807,-13.51298387096774
1.0,2024-05-10 14:37:31.625231616,0.66,0.85,-0.27,51.15,104.37,-18.74
1.0,2024-05-10 14:37:31.635182336,0.66,0.85,-0.27,51.15,104.37,-18.74
1.0,2024-05-10 14:37:31.644800512,0.66,0.85,-0.2700000000000001,51.15,104.37000000000002,-18.74
1.0,2024-05-10 14:37:31.654869504,0.6659541984732825,0.9184732824427482,-0.25809160305343515,48.80404580152672,103.66145038167939,-17.37648854961832
1.0,2024-05-10 14:37:31.665187840,0.68,1.08,-0.23,43.27,101.99,-14.16
1.0,2024-05-10 14:37:31.675129088,0.68,1.08,-0.23,43.27,101.99,-14.16
1.0,2024-05-10 14:37:31.685209600,0.7187265917602996,1.027191011235955,-0.22295880149812736,38.11524344569288,99.06325842696629,-13.923520599250937
1.0,2024-05-10 14:37:31.694944512,0.9,0.78,-0.19,-19.29,66.47,-11.29
1.0,2024-05-10 14:37:31.704814336,0.9,0.78,-0.19,-19.29,66.47,-11.29
1.0,2024-05-10 14:37:31.715022080,0.9,0.78,-0.19,-19.29,66.47,-11.29
1.0,2024-05-10 14:37:31.725001472,0.9182101167315174,0.7982101167315175,-0.23552529182879378,-22.54291828793774,62.45638132295719,-7.3600389105058355
1.0,2024-05-10 14:37:31.735026176,0.96,0.84,-0.34,-36.01,45.84,8.91
1.0,2024-05-10 14:37:31.744675072,0.96,0.84,-0.34,-36.01,45.84,8.91
1.0,2024-05-10 14:37:31.754815488,0.96,0.84,-0.34,-36.01,45.84,8.91
1.0,2024-05-10 14:37:31.765236992,1.0228861788617887,0.7432520325203252,-0.2190650406504065,-46.13195121951219,23.80646341463415,-0.19060975609756126
1.0,2024-05-10 14:37:31.775036928,1.09,0.64,-0.09,-69.21,-26.43,-20.94
1.0,2024-05-10 14:37:31.784312064,1.09,0.64,-0.09,-69.21,-26.43,-20.94
1.0,2024-05-10 14:37:31.795008512,1.09,0.64,-0.09,-69.21,-26.43,-20.94
1.0,2024-05-10 14:37:31.805030656,0.9632456140350878,0.6698245614035088,-0.12728070175438597,-62.188947368421054,-10.321008771929824,14.387850877192982
1.0,2024-05-10 14:37:31.814872832,0.92,0.68,-0.14,-58.17,-1.1,34.61
1.0,2024-05-10 14:37:31.824919296,0.92,0.68,-0.14,-58.17,-1.1,34.61
1.0,2024-05-10 14:37:31.835023872,0.92,0.68,-0.14,-58.17,-1.1,34.61
1.0,2024-05-10 14:37:31.845164288,0.7857587548638132,0.6442023346303501,-0.13105058365758754,-109.38980544747082,-109.46011673151752,12.891050583657588
1.0,2024-05-10 14:37:31.855378176,0.77,0.64,-0.13,-123.66,-139.65,6.84
1.0,2024-05-10 14:37:31.864946944,0.77,0.64,-0.13,-123.66,-139.65,6.84
1.0,2024-05-10 14:37:31.874885888,0.77,0.64,-0.13,-123.66,-139.65,6.84
1.0,2024-05-10 14:37:31.885227008,1.1187179487179488,0.14183150183150187,0.14897435897435898,-94.37538461538462,-2.2526373626373624,34.38
1.0,2024-05-10 14:37:31.895270912,1.12,0.14,0.15,-90.76,14.71,37.78
1.0,2024-05-10 14:37:31.905026304,1.12,0.14,0.15,-90.76,14.71,37.78
1.0,2024-05-10 14:37:31.915214592,1.0126294820717132,0.18741035856573704,0.07051792828685259,-92.39900398406375,9.928167330677292,35.8082470119522
1.0,2024-05-10 14:37:31.924966400,0.35,0.48,-0.42,-136.47,-118.65,-17.21
1.0,2024-05-10 14:37:31.934964992,0.35,0.48,-0.42,-136.47,-118.65,-17.21
1.0,2024-05-10 14:37:31.944936704,0.35,0.48,-0.42,-136.47,-118.65,-17.21
1.0,2024-05-10 14:37:31.955035648,0.5192307692307693,0.30875457875457873,-0.27897435897435896,-134.20904761904762,-109.81476190476191,-9.258571428571429
1.0,2024-05-10 14:37:31.965422080,1.19,-0.37,0.28,-112.73,-25.88,66.28
1.0,2024-05-10 14:37:31.975153408,1.19,-0.37,0.28,-112.73,-25.88,66.28
1.0,2024-05-10 14:37:31.985149184,1.19,-0.37,0.28,-112.73,-25.88,66.28
1.0,2024-05-10 14:37:31.995587072,0.9577021276595745,-0.2549787234042553,0.08604255319148939,-117.29493617021276,-53.727659574468085,58.94689361702128
1.0,2024-05-10 14:37:32.005096192,0.16,0.14,-0.58,-133.36,-151.73,33.14
1.0,2024-05-10 14:37:32.015182336,0.16,0.14,-0.58,-133.36,-151.73,33.14
1.0,2024-05-10 14:37:32.025009920,0.16,0.14,-0.58,-133.36,-151.73,33.14
1.0,2024-05-10 14:37:32.034612480,1.1596694214876033,-0.34421487603305784,0.0968595041322314,-114.29752066115704,-126.70611570247932,36.775537190082645
1.0,2024-05-10 14:37:32.044842240,2.08,-0.79,0.72,-89.84,-94.6,41.44
1.0,2024-05-10 14:37:32.054833408,2.08,-0.79,0.72,-89.84,-94.6,41.44
1.0,2024-05-10 14:37:32.064773120,2.08,-0.79,0.72,-89.84,-94.6,41.44
1.0,2024-05-10 14:37:32.074769408,0.945625,-0.24000000000000002,-0.1325,-49.418958333333336,38.86062500000001,75.40104166666667
1.0,2024-05-10 14:37:32.084870912,0.43,0.01,-0.52,24.289999999999996,282.23,137.33
1.0,2024-05-10 14:37:32.094662144,0.43,0.01,-0.52,24.29,282.23,137.33
1.0,2024-05-10 14:37:32.104981504,0.43,0.01,-0.52,24.29,282.23,137.33
1.0,2024-05-10 14:37:32.115318016,0.785909090909091,-0.4546590909090909,-0.10477272727272727,-48.74022727272727,-52.8669318181818,40.56534090909091
1.0,2024-05-10 14:37:32.125363968,0.79,-0.46,-0.1,-68.85,-145.14,13.92
1.0,2024-05-10 14:37:32.135272192,0.79,-0.46,-0.1,-68.85,-145.14,13.92
1.0,2024-05-10 14:37:32.145079296,0.8205454545454546,-0.4574545454545455,-0.10254545454545455,-67.5636,-139.15003636363633,18.5568
1.0,2024-05-10 14:37:32.155470336,1.03,-0.44,-0.12,-39.37,-7.87,120.18
1.0,2024-05-10 14:37:32.165380864,1.03,-0.44,-0.12,-39.37,-7.87,120.18
1.0,2024-05-10 14:37:32.175044096,1.05376,-0.43783999999999995,-0.1524,-42.467439999999996,-17.520880000000002,118.65720000000002
1.0,2024-05-10 14:37:32.184763904,1.14,-0.43,-0.27,-68.05,-97.23,106.08
1.0,2024-05-10 14:37:32.194973696,1.14,-0.43,-0.27,-68.05,-97.23,106.08
1.0,2024-05-10 14:37:32.205099008,1.14,-0.43,-0.27,-68.05,-97.23,106.08
1.0,2024-05-10 14:37:32.215372288,1.3444843049327353,-0.4622869955156951,-0.07089686098654709,-59.200179372197304,-52.00372197309417,97.79645739910315
1.0,2024-05-10 14:37:32.225125376,1.52,-0.49,0.1,-42.42,33.75,82.09
1.0,2024-05-10 14:37:32.235260160,1.52,-0.49,0.1,-42.42,33.75,82.09
1.0,2024-05-10 14:37:32.245427456,1.52,-0.48999999999999994,0.1,-42.42,33.75,82.09
1.0,2024-05-10 14:37:32.255212544,1.32848,-0.39424000000000003,0.04528,-39.593360000000004,53.91384,71.76956
1.0,2024-05-10 14:37:32.265417216,1.1,-0.28,-0.02,-34.48,90.39,53.1
1.0,2024-05-10 14:37:32.275437568,1.1,-0.28,-0.02,-34.48,90.39,53.1
1.0,2024-05-10 14:37:32.285465344,1.1,-0.28,-0.02,-34.48,90.39,53.1
1.0,2024-05-10 14:37:32.295422720,1.041581395348837,-0.31651162790697673,-0.012697674418604652,-38.36897674418605,88.99311627906977,43.452976744186046
1.0,2024-05-10 14:37:32.305236992,1.02,-0.33,-0.01,-40.41,88.26,38.39
1.0,2024-05-10 14:37:32.314996480,1.02,-0.33,-0.01,-40.41,88.26,38.39
1.0,2024-05-10 14:37:32.324988416,1.02,-0.33,-0.010000000000000002,-40.41,88.26,38.39
1.0,2024-05-10 14:37:32.334784256,1.1112863070539418,-0.305103734439834,0.07298755186721992,-17.578672199170125,22.63954356846473,11.884190871369295
1.0,2024-05-10 14:37:32.344605952,1.13,-0.3,0.09,-12.76,8.79,6.29
1.0,2024-05-10 14:37:32.354698496,1.13,-0.3,0.09,-12.76,8.79,6.29
1.0,2024-05-10 14:37:32.365050112,1.1224710424710425,-0.30050193050193047,0.08648648648648648,-12.76,8.79,6.29
1.0,2024-05-10 14:37:32.374950912,0.98,-0.31,0.02,-21.621311475409836,15.922868852459017,8.27
1.0,2024-05-10 14:37:32.385245952,0.9800000000000001,-0.31,0.02,-23.68,17.58,8.73
1.0,2024-05-10 14:37:32.394807808,0.98,-0.30999999999999994,0.020000000000000004,-23.68,17.58,8.73
1.0,2024-05-10 14:37:32.404871424,1.0186194029850746,-0.3267910447761194,0.030074626865671642,-23.68,17.58,8.73
1.0,2024-05-10 14:37:32.415367168,1.21,-0.41,0.08,2.0582716049382714,-5.8076543209876546,-7.911975308641975
1.0,2024-05-10 14:37:32.424522240,1.21,-0.41,0.08,2.38,-6.1,-8.12
1.0,2024-05-10 14:37:32.435274240,1.21,-0.41,0.08,2.38,-6.1,-8.12
1.0,2024-05-10 14:37:32.444969216,1.1149382716049383,-0.34518518518518515,0.045432098765432104,-2.262181069958848,10.976255144032923,-7.422880658436213
1.0,2024-05-10 14:37:32.454510592,0.9899999999999999,-0.26,0.0,-12.27,47.79,-5.92
1.0,2024-05-10 14:37:32.464904448,0.9899999999999999,-0.26,0.0,-12.27,47.79,-5.92
1.0,2024-05-10 14:37:32.475205888,0.99,-0.26,0.0,-12.27,47.79,-5.92
1.0,2024-05-10 14:37:32.484958464,1.12632,-0.33384,0.09087999999999999,-16.808239999999998,47.51672,-0.8352
1.0,2024-05-10 14:37:32.494882816,1.23,-0.39,0.16,-22.4,47.18,5.43
1.0,2024-05-10 14:37:32.505010944,1.2299999999999998,-0.39,0.16,-22.4,47.18,5.43
1.0,2024-05-10 14:37:32.515251456,1.23,-0.39,0.16,-22.4,47.18,5.43
1.0,2024-05-10 14:37:32.524805888,0.9323893805309734,-0.5074778761061948,0.09734513274336283,-45.88318584070797,54.12756637168142,12.967389380530975
1.0,2024-05-10 14:37:32.534847744,0.85,-0.54,0.08,-56.64,57.31,16.42
1.0,2024-05-10 14:37:32.544993280,0.85,-0.54,0.08,-56.64,57.31,16.42
1.0,2024-05-10 14:37:32.554891008,0.85,-0.54,0.08,-56.64,57.31,16.42
1.0,2024-05-10 14:37:32.564886016,1.2396551724137932,-0.7932758620689656,0.12870689655172413,-40.65275862068966,9.568620689655173,30.987241379310344
1.0,2024-05-10 14:37:32.575098368,1.25,-0.8,0.13,-30.52,-20.69,40.22
1.0,2024-05-10 14:37:32.585099008,1.25,-0.8000000000000002,0.13,-30.52,-20.69,40.22
1.0,2024-05-10 14:37:32.594961920,1.2012033195020748,-0.7776348547717842,0.0974688796680498,-30.52,-20.69,40.22
1.0,2024-05-10 14:37:32.605284608,1.01,-0.69,-0.03,21.79,49.62,54.81
1.0,2024-05-10 14:37:32.614820352,1.01,-0.69,-0.03,21.79,49.62,54.81
1.0,2024-05-10 14:37:32.624857088,1.01,-0.69,-0.03,21.79,49.62,54.81
1.0,2024-05-10 14:37:32.634936064,0.9877272727272728,-0.8268181818181818,-0.04909090909090909,21.668512396694215,43.113388429752064,53.846363636363634
1.0,2024-05-10 14:37:32.645081600,0.94,-1.12,-0.09,20.32,-29.11,43.15
1.0,2024-05-10 14:37:32.655441664,0.94,-1.12,-0.09,20.32,-29.110000000000003,43.15
1.0,2024-05-10 14:37:32.665282560,0.94,-1.12,-0.09,20.32,-29.110000000000003,43.14999999999999
1.0,2024-05-10 14:37:32.675000832,0.9595384615384615,-0.8806538461538462,-0.050923076923076925,47.57276923076923,-36.23953846153846,27.791846153846155
1.0,2024-05-10 14:37:32.685346560,0.98,-0.63,-0.01,95.7,-48.83,0.67
1.0,2024-05-10 14:37:32.695221760,0.98,-0.63,-0.01,95.7,-48.83,0.67
1.0,2024-05-10 14:37:32.705254144,0.98,-0.63,-0.010000000000000002,95.7,-48.83,0.6700000000000002
1.0,2024-05-10 14:37:32.715136000,0.8812987012987014,-0.739090909090909,-0.07753246753246754,94.15969696969697,-95.17303030303029,-37.7190909090909
1.0,2024-05-10 14:37:32.724843008,0.7899999999999999,-0.84,-0.14,92.71,-138.79,-73.85
1.0,2024-05-10 14:37:32.735197952,0.79,-0.84,-0.14,92.71,-138.79,-73.85
1.0,2024-05-10 14:37:32.745254400,0.79,-0.84,-0.14,92.71,-138.79,-73.85
1.0,2024-05-10 14:37:32.754724352,0.9124215246636771,-0.38529147982062784,0.07860986547085203,115.36174887892376,-124.28183856502241,-76.80224215246638
1.0,2024-05-10 14:37:32.765017088,0.93,-0.32,0.11,122.25,-119.87000000000002,-77.7
1.0,2024-05-10 14:37:32.775036672,0.93,-0.32,0.11,122.25,-119.87,-77.7
1.0,2024-05-10 14:37:32.784850688,0.93,-0.32,0.11,122.25,-119.87,-77.7
1.0,2024-05-10 14:37:32.795067648,0.6474273858921162,-0.49896265560165975,-0.13489626556016596,107.96784232365145,-104.57539419087136,-112.49668049792531
1.0,2024-05-10 14:37:32.805258240,0.6299999999999999,-0.51,-0.15,105.04,-101.44,-119.63
1.0,2024-05-10 14:37:32.815336448,0.63,-0.51,-0.15,105.04,-101.44,-119.63
1.0,2024-05-10 14:37:32.825309696,0.63,-0.51,-0.15,105.04,-101.44000000000001,-119.63
1.0,2024-05-10 14:37:32.835474944,0.9510629921259842,-0.2623228346456693,-0.09496062992125984,145.34771653543308,-5.214803149606299,-126.92795275590551
1.0,2024-05-10 14:37:32.845344768,0.98,-0.24,-0.09,149.17,3.91,-127.62
1.0,2024-05-10 14:37:32.855008256,0.98,-0.24,-0.09,149.17,3.91,-127.62
1.0,2024-05-10 14:37:32.864638720,0.929074074074074,-0.22703703703703704,-0.11314814814814815,149.17,3.91,-127.62
1.0,2024-05-10 14:37:32.874854400,0.43,-0.1,-0.34,108.66999999999999,-37.12823529411765,-156.87000000000003
1.0,2024-05-10 14:37:32.885099008,0.42999999999999994,-0.1,-0.34,103.27,-42.6,-160.77
1.0,2024-05-10 14:37:32.895103744,0.43,-0.1,-0.34,103.27,-42.6,-160.77
1.0,2024-05-10 14:37:32.905370112,0.43,-0.1,-0.34,103.27,-42.6,-160.77
1.0,2024-05-10 14:37:32.915161600,1.1936206896551724,0.06870689655172414,0.2193965517241379,128.67409482758623,-2.907758620689655,-177.43508620689656
1.0,2024-05-10 14:37:32.925008384,1.29,0.09,0.29,132.02,2.32,-179.63
1.0,2024-05-10 14:37:32.935314688,1.29,0.09,0.29,132.02,2.32,-179.63
1.0,2024-05-10 14:37:32.945253376,0.9639130434782609,0.35521739130434776,0.04652173913043477,154.4568695652174,64.72678260869566,-180.83052173913043
1.0,2024-05-10 14:37:32.954934016,0.54,0.7,-0.27,198.18,186.34,-183.17
1.0,2024-05-10 14:37:32.965110272,0.5400000000000001,0.7,-0.2700000000000001,198.18,186.34,-183.17
1.0,2024-05-10 14:37:32.975152896,0.54,0.7,-0.27,198.18,186.34,-183.17
1.0,2024-05-10 14:37:32.985059584,0.617,0.903,-0.382,189.77352173913044,136.1663043478261,-182.03486956521738
1.0,2024-05-10 14:37:32.994766336,0.65,0.99,-0.43,180.11,78.49,-180.73
1.0,2024-05-10 14:37:33.005108224,0.65,0.99,-0.43,180.11,78.49,-180.73
1.0,2024-05-10 14:37:33.014899968,0.65,0.99,-0.43,180.11,78.49,-180.73
1.0,2024-05-10 14:37:33.025022208,0.588876404494382,1.0154681647940074,-0.7458052434456929,169.52741573033708,82.10011235955056,-147.95584269662922
1.0,2024-05-10 14:37:33.034943744,0.53,1.04,-1.05,159.18,85.63,-115.91
1.0,2024-05-10 14:37:33.044707072,0.53,1.04,-1.05,159.18,85.63,-115.91
1.0,2024-05-10 14:37:33.054953216,0.53,1.04,-1.05,159.18,85.63,-115.91
1.0,2024-05-10 14:37:33.065007104,0.4062790697674419,1.2609302325581397,-1.3769767441860465,17.640976744186045,-53.17511627906977,-35.26413953488372
1.0,2024-05-10 14:37:33.075153664,0.39,1.29,-1.42,-1.83,-72.27,-24.17
1.0,2024-05-10 14:37:33.084904192,0.39,1.29,-1.42,-1.83,-72.27,-24.17
1.0,2024-05-10 14:37:33.095074560,0.39,1.29,-1.42,-1.83,-72.27,-24.17
1.0,2024-05-10 14:37:33.105727488,0.8635714285714285,0.46125000000000005,-0.33473214285714287,-54.278035714285714,-74.01629464285715,-2.7310267857142856
1.0,2024-05-10 14:37:33.115214080,0.8699999999999999,0.45,-0.32,-54.99,-74.04,-2.44
1.0,2024-05-10 14:37:33.124976896,0.87,0.45,-0.32,-54.99,-74.04,-2.44
1.0,2024-05-10 14:37:33.135267584,0.8283771929824562,0.5588596491228071,-0.25916666666666666,-54.91342105263158,-70.00657894736842,3.2600000000000002
1.0,2024-05-10 14:37:33.145310208,0.74,0.79,-0.13,-54.02,-22.95,69.76
1.0,2024-05-10 14:37:33.155098880,0.74,0.79,-0.13,-54.02,-22.95,69.76
1.0,2024-05-10 14:37:33.165182976,0.74,0.7900000000000001,-0.13,-54.02,-22.95,69.76
1.0,2024-05-10 14:37:33.174883584,0.8276255707762558,0.6470319634703195,-0.02392694063926941,-45.80027397260274,-27.115479452054796,58.42958904109589
1.0,2024-05-10 14:37:33.184926720,0.93,0.48,0.1,-32.59,-33.81,40.22
1.0,2024-05-10 14:37:33.194978048,0.93,0.48,0.1,-32.59,-33.81,40.22
1.0,2024-05-10 14:37:33.204786432,0.93,0.48,0.1,-32.59,-33.81,40.22
1.0,2024-05-10 14:37:33.214692864,0.9197854077253219,0.46978540772532185,-0.04300429184549355,-10.051502145922749,-24.739442060085835,19.83678111587983
1.0,2024-05-10 14:37:33.225047040,0.91,0.46,-0.18,11.54,-16.05,0.31
1.0,2024-05-10 14:37:33.235120128,0.91,0.46,-0.18,11.54,-16.05,0.31
1.0,2024-05-10 14:37:33.245309184,0.91,0.46,-0.18,11.54,-16.05,0.31
1.0,2024-05-10 14:37:33.255376128,0.8519178082191781,0.5979452054794522,-0.2961643835616438,-0.07643835616438377,-14.946438356164384,-20.875479452054797
1.0,2024-05-10 14:37:33.264987648,0.8300000000000001,0.65,-0.34,-4.46,-14.530000000000001,-28.87
1.0,2024-05-10 14:37:33.275067392,0.83,0.65,-0.34,-4.46,-14.53,-28.87
1.0,2024-05-10 14:37:33.285052160,0.8297468354430378,0.65,-0.34059071729957807,-4.46,-14.53,-28.87
1.0,2024-05-10 14:37:33.295122944,0.8,0.65,-0.41,4.55088,33.61464,-41.22168
1.0,2024-05-10 14:37:33.305052928,0.8,0.65,-0.41,5.25,37.35,-42.18
1.0,2024-05-10 14:37:33.314464512,0.8,0.65,-0.41,5.25,37.35,-42.18
1.0,2024-05-10 14:37:33.325008896,0.7780898876404494,0.6719101123595506,-0.41,5.25,37.35,-42.18
1.0,2024-05-10 14:37:33.334873344,0.67,0.78,-0.41000000000000003,3.0080769230769233,54.57995192307692,-24.128653846153846
1.0,2024-05-10 14:37:33.344592640,0.67,0.78,-0.41,2.93,55.18,-23.5
1.0,2024-05-10 14:37:33.354846464,0.67,0.78,-0.41,2.93,55.18,-23.5
1.0,2024-05-10 14:37:33.365012736,0.67,0.7825961538461539,-0.4091346153846154,2.955865384615385,55.121249999999996,-23.35096153846154
1.0,2024-05-10 14:37:33.375057664,0.67,0.96,-0.35,5.62,49.07,-8.0
1.0,2024-05-10 14:37:33.385126144,0.67,0.9599999999999999,-0.35,5.62,49.07,-8.0
1.0,2024-05-10 14:37:33.395197696,0.67,0.9600000000000001,-0.3499999999999999,5.62,49.07000000000001,-8.0
1.0,2024-05-10 14:37:33.405404672,0.67,0.9679365079365079,-0.35099206349206347,9.293333333333333,52.87190476190476,-9.603809523809524
1.0,2024-05-10 14:37:33.415442944,0.67,1.04,-0.36,44.19,88.99,-24.84
1.0,2024-05-10 14:37:33.425111040,0.67,1.04,-0.36,44.19,88.99,-24.84
1.0,2024-05-10 14:37:33.435371264,0.67,1.04,-0.36,44.19,88.99,-24.84
1.0,2024-05-10 14:37:33.445048832,0.7336681222707423,1.0046288209606986,-0.28218340611353715,68.57803493449781,135.51829694323143,-65.37222707423581
1.0,2024-05-10 14:37:33.454976000,0.76,0.99,-0.25,84.66,166.2,-92.1
1.0,2024-05-10 14:37:33.465576960,0.76,0.99,-0.25,84.66,166.2,-92.1
1.0,2024-05-10 14:37:33.475577088,0.76,0.99,-0.25,84.66,166.2,-92.1
1.0,2024-05-10 14:37:33.484785664,0.9153023255813953,0.8346976744186047,-0.22041860465116278,85.00641860465117,182.3221395348837,-89.30358139534884
1.0,2024-05-10 14:37:33.494630912,0.97,0.78,-0.21,86.18,236.94,-79.83
1.0,2024-05-10 14:37:33.504714240,0.97,0.78,-0.21,86.18,236.94,-79.83
1.0,2024-05-10 14:37:33.515003648,0.97,0.78,-0.21,86.18,236.94,-79.83
1.0,2024-05-10 14:37:33.524858112,0.6936909871244636,1.1039484978540774,-0.2576394849785408,-26.578025751072957,247.05244635193134,-44.51291845493562
1.0,2024-05-10 14:37:33.534852864,0.68,1.12,-0.26,-46.51,248.84,-38.27
1.0,2024-05-10 14:37:33.544659200,0.68,1.12,-0.26,-46.51,248.84,-38.27
1.0,2024-05-10 14:37:33.555002624,0.7139591836734694,1.0223673469387755,-0.15812244897959185,-46.51,248.84,-38.27
1.0,2024-05-10 14:37:33.565326848,0.84,0.66,0.22,-176.88,115.91,-2.2
1.0,2024-05-10 14:37:33.575123968,0.84,0.66,0.22,-176.88,115.91,-2.2
1.0,2024-05-10 14:37:33.584880128,0.8399999999999999,0.6600000000000001,0.22,-176.88,115.91000000000001,-2.2
1.0,2024-05-10 14:37:33.595025920,0.7494570135746607,0.6880995475113122,0.1388235294117647,-181.44,103.37235294117647,1.5776470588235292
1.0,2024-05-10 14:37:33.605414400,0.55,0.75,-0.04,-215.64,9.34,29.91
1.0,2024-05-10 14:37:33.615473920,0.55,0.75,-0.04,-215.64,9.34,29.91
1.0,2024-05-10 14:37:33.624753920,0.55,0.75,-0.04,-215.64,9.34,29.91
1.0,2024-05-10 14:37:33.635075584,0.63904,0.4744,0.066,-231.28207999999998,-50.00692,32.388
1.0,2024-05-10 14:37:33.645366528,0.76,0.1,0.21,-281.92,-242.13,40.41
1.0,2024-05-10 14:37:33.655323136,0.76,0.1,0.21,-281.92,-242.13,40.41
1.0,2024-05-10 14:37:33.665124352,0.76,0.1,0.21,-281.92,-242.13,40.41
1.0,2024-05-10 14:37:33.674455296,0.8608620689655172,0.21767241379310345,-0.025344827586206896,-253.6876724137931,-334.0864655172414,26.348146551724135
1.0,2024-05-10 14:37:33.684601856,0.94,0.31,-0.21,-219.54,-445.31,9.34
1.0,2024-05-10 14:37:33.694557440,0.9400000000000001,0.31,-0.21,-219.54,-445.31,9.34
1.0,2024-05-10 14:37:33.704813568,0.94,0.31,-0.21,-219.54,-445.31,9.34
1.0,2024-05-10 14:37:33.715187968,1.8971544715447157,-0.4823983739837398,0.5980894308943089,-182.20073170731706,-4.3614634146341515,106.99219512195123
1.0,2024-05-10 14:37:33.725126656,2.16,-0.7,0.82,-166.75,178.1,147.4
1.0,2024-05-10 14:37:33.734858240,2.16,-0.7,0.82,-166.75,178.1,147.4
1.0,2024-05-10 14:37:33.745204224,2.16,-0.7,0.82,-166.75,178.1,147.4
1.0,2024-05-10 14:37:33.755308032,0.27121076233183855,0.3460986547085202,-0.5069955156950673,-126.7934529147982,237.13816143497758,160.77479820627804
1.0,2024-05-10 14:37:33.764880384,0.21,0.38,-0.55,-121.52,244.93,162.54
1.0,2024-05-10 14:37:33.774621952,0.21,0.38,-0.55,-121.52,244.93,162.54
1.0,2024-05-10 14:37:33.785170944,0.31606060606060604,0.2587878787878788,-0.45800865800865803,-121.52,244.93,162.54
1.0,2024-05-10 14:37:33.794950144,1.1899999999999997,-0.74,0.3,-253.29708333333332,-116.12069444444444,-33.69726851851852
1.0,2024-05-10 14:37:33.804810496,1.19,-0.74,0.3,-253.91,-117.8,-34.61
1.0,2024-05-10 14:37:33.814368512,1.19,-0.74,0.3,-253.91,-117.8,-34.61
1.0,2024-05-10 14:37:33.824570624,1.0679012345679013,-0.6975308641975309,0.25753086419753085,-246.06135802469134,-107.60246913580247,-26.377654320987652
1.0,2024-05-10 14:37:33.834867200,0.5,-0.5,0.06,-117.68,59.2,108.28
1.0,2024-05-10 14:37:33.844869376,0.5,-0.5,0.06,-117.68,59.2,108.28
1.0,2024-05-10 14:37:33.855217920,0.5,-0.5,0.06,-117.68,59.2,108.28
1.0,2024-05-10 14:37:33.865008640,0.6575,-0.62375,0.1575,-125.80219827586207,16.518534482758625,89.02374999999999
1.0,2024-05-10 14:37:33.875525632,0.92,-0.83,0.32,-146.67,-93.14,39.55
1.0,2024-05-10 14:37:33.885460992,0.92,-0.83,0.32,-146.67,-93.14,39.55
1.0,2024-05-10 14:37:33.895303936,0.92,-0.83,0.31999999999999995,-146.67,-93.14,39.55
1.0,2024-05-10 14:37:33.904988672,0.9042794759825328,-0.7251965065502183,0.22043668122270743,-125.45681222707422,-100.12218340611354,29.5014847161572
1.0,2024-05-10 14:37:33.915213312,0.89,-0.63,0.13,-78.25,-115.66,7.14
1.0,2024-05-10 14:37:33.925520384,0.89,-0.63,0.13,-78.25,-115.66,7.14
1.0,2024-05-10 14:37:33.935137280,0.8900000000000001,-0.6300000000000001,0.13,-78.25,-115.66,7.14
1.0,2024-05-10 14:37:33.944691968,1.1236405529953917,-0.6066359447004608,0.2779723502304147,-42.70069124423963,-90.13741935483871,-3.0457142857142863
1.0,2024-05-10 14:37:33.954756864,1.19,-0.6,0.32,-11.17,-67.5,-12.08
1.0,2024-05-10 14:37:33.964840192,1.19,-0.6,0.32,-11.17,-67.5,-12.08
1.0,2024-05-10 14:37:33.975267584,1.19,-0.6,0.32,-11.17,-67.5,-12.08
1.0,2024-05-10 14:37:33.985117952,0.8722413793103448,-0.48293103448275865,0.20293103448275862,-26.17206896551724,-27.608275862068965,-5.4510344827586215
1.0,2024-05-10 14:37:33.995148032,0.81,-0.46,0.18,-35.34,-3.23,-1.4
1.0,2024-05-10 14:37:34.005425408,0.81,-0.46,0.18,-35.34,-3.23,-1.4
1.0,2024-05-10 14:37:34.015253504,0.81,-0.46,0.18,-35.34,-3.2299999999999995,-1.3999999999999997
1.0,2024-05-10 14:37:34.025159424,0.8954621848739496,-0.4884873949579832,0.21798319327731094,11.776470588235293,-30.984705882352944,-12.906176470588235
1.0,2024-05-10 14:37:34.035454464,0.9,-0.49,0.22,19.9,-35.77,-14.89
1.0,2024-05-10 14:37:34.045394688,0.9,-0.49,0.22,19.9,-35.77,-14.89
1.0,2024-05-10 14:37:34.055458816,0.9084848484848485,-0.45181818181818184,0.18818181818181817,19.84583333333333,-36.47318181818182,-13.922878787878789
1.0,2024-05-10 14:37:34.065185280,0.94,-0.31,0.07,19.35,-42.91,-5.07
1.0,2024-05-10 14:37:34.074464512,0.94,-0.31,0.07,19.35,-42.91,-5.07
1.0,2024-05-10 14:37:34.084730368,0.94,-0.31,0.07,19.35,-42.91,-5.07
1.0,2024-05-10 14:37:34.095184384,0.9601646090534979,-0.32008230452674896,0.07806584362139919,19.645308641975312,-42.74111111111111,-6.944567901234568
1.0,2024-05-10 14:37:34.105339904,1.04,-0.36,0.11,22.34,-41.2,-24.05
1.0,2024-05-10 14:37:34.115577856,1.04,-0.36,0.10999999999999999,22.340000000000003,-41.2,-24.05
1.0,2024-05-10 14:37:34.125401856,1.04,-0.36,0.11,22.34,-41.2,-24.05
1.0,2024-05-10 14:37:34.135341568,1.0306422018348624,-0.34128440366972473,0.07256880733944954,21.052155963302752,-36.90183486238532,-20.969724770642205
1.0,2024-05-10 14:37:34.145294592,1.01,-0.3,-0.01,11.11,-3.72,2.81
1.0,2024-05-10 14:37:34.155007232,1.01,-0.3,-0.01,11.11,-3.72,2.81
1.0,2024-05-10 14:37:34.161440768,1.01,-0.3,-0.01,11.11,-3.7200000000000006,2.81
,,,,,,,
1.0,2024-05-10 14:37:34.187042560,1.12910447761194,-0.3297761194029851,-7.462686567164179e-05,5.720522388059702,-11.779402985074627,-7.978880597014926
1.0,2024-05-10 14:37:34.194775040,1.13,-0.33,0.0,5.68,-11.84,-8.06
1.0,2024-05-10 14:37:34.205223168,1.13,-0.33,0.0,5.68,-11.84,-8.06
1.0,2024-05-10 14:37:34.214903552,1.1796244131455398,-0.3796244131455399,-0.021267605633802818,5.5916901408450705,-13.968732394366198,-11.350704225352114
1.0,2024-05-10 14:37:34.224696320,1.2,-0.4,-0.03,5.49,-16.42,-15.14
1.0,2024-05-10 14:37:34.234649600,1.2,-0.4,-0.03,5.49,-16.42,-15.14
1.0,2024-05-10 14:37:34.245000192,1.2,-0.4,-0.029999999999999995,5.49,-16.42,-15.140000000000002
1.0,2024-05-10 14:37:34.254871040,1.2764806866952791,-0.4509871244635193,0.03798283261802576,17.915321888412016,-28.44403433476395,-46.35287553648069
1.0,2024-05-10 14:37:34.264777984,1.29,-0.46,0.05,22.52,-32.9,-57.92
1.0,2024-05-10 14:37:34.274807040,1.29,-0.46,0.05,22.52,-32.9,-57.92
1.0,2024-05-10 14:37:34.284954112,1.29,-0.46,0.05,22.52,-32.9,-57.92
1.0,2024-05-10 14:37:34.294776064,1.316150442477876,-0.5297345132743363,0.05871681415929203,37.764247787610614,2.1296460176991157,-51.23969026548673
1.0,2024-05-10 14:37:34.304908544,1.32,-0.54,0.06,43.4,15.08,-48.77
1.0,2024-05-10 14:37:34.314727936,1.32,-0.5400000000000001,0.05999999999999999,43.4,15.08,-48.77
1.0,2024-05-10 14:37:34.324546816,1.3158078602620087,-0.5504803493449781,0.06209606986899563,43.40052401746725,15.376375545851529,-48.73187772925765
1.0,2024-05-10 14:37:34.335214336,1.28,-0.64,0.08,43.52,82.95,-40.04
1.0,2024-05-10 14:37:34.345046272,1.28,-0.64,0.08,43.52,82.95,-40.04
1.0,2024-05-10 14:37:34.354555392,1.28,-0.64,0.08,43.52,82.95,-40.04
1.0,2024-05-10 14:37:34.365346304,1.2097520661157024,-0.6891735537190082,0.08,53.3109090909091,85.00785123966942,-33.320991735537184
1.0,2024-05-10 14:37:34.375296256,1.08,-0.78,0.08,83.01,91.25,-12.94
1.0,2024-05-10 14:37:34.384886528,1.08,-0.78,0.08,83.00999999999999,91.25,-12.94
1.0,2024-05-10 14:37:34.395126784,1.08,-0.78,0.08,83.01,91.25,-12.94
1.0,2024-05-10 14:37:34.405193472,1.0453879310344827,-0.691896551724138,0.09258620689655173,95.43620689655172,78.40586206896552,-14.884827586206896
1.0,2024-05-10 14:37:34.414804736,0.97,-0.5,0.12,143.07,29.17,-22.339999999999996
1.0,2024-05-10 14:37:34.424967680,0.97,-0.5,0.12,143.07,29.17,-22.34
1.0,2024-05-10 14:37:34.435508736,0.97,-0.5,0.12,143.07,29.17,-22.34
1.0,2024-05-10 14:37:34.445461248,0.8956696428571428,-0.6139732142857143,0.04071428571428571,143.67455357142856,-18.19330357142857,-13.811830357142856
1.0,2024-05-10 14:37:34.455393536,0.82,-0.73,-0.04,144.29,-66.41,-5.13
1.0,2024-05-10 14:37:34.464905216,0.82,-0.73,-0.04,144.29,-66.41,-5.13
1.0,2024-05-10 14:37:34.475005440,0.82,-0.73,-0.04,144.29,-66.41,-5.13
1.0,2024-05-10 14:37:34.485608960,0.9422222222222222,-0.6829914529914529,0.04931623931623931,132.2347863247863,-53.69799145299145,-0.863162393162393
1.0,2024-05-10 14:37:34.495112448,1.08,-0.63,0.15,118.41,-39.12,4.03
1.0,2024-05-10 14:37:34.505425152,1.08,-0.63,0.15,118.41,-39.12,4.03
1.0,2024-05-10 14:37:34.515280896,1.08,-0.63,0.15,118.41,-39.12,4.03
1.0,2024-05-10 14:37:34.524837120,0.8738842975206612,-0.4594214876033058,0.07181818181818181,130.86223140495866,-62.68115702479338,-27.249834710743798
1.0,2024-05-10 14:37:34.535400960,0.79,-0.39,0.04,135.93,-72.27,-39.98
1.0,2024-05-10 14:37:34.545250304,0.79,-0.39,0.04,135.93,-72.27,-39.98
1.0,2024-05-10 14:37:34.552355840,0.79,-0.39,0.04,135.93,-72.27,-39.98
