id,timestamp,acc_x,acc_y,acc_z,gyro_x,gyro_y,gyro_z
0,1715781915510,0.47015625,0.6698437500000001,-0.000234375,10.1853125,-19.54515625,-125.08671875
1,1715781915520,0.47,0.67,0.0,10.13,-19.59,-125.06
2,1715781915530,0.47,0.67,0.0,10.13,-19.59,-125.06
3,1715781915540,0.4348695652173913,0.7095217391304348,-0.021956521739130437,9.104782608695652,-20.783478260869565,-119.73434782608696
4,1715781915550,0.39,0.76,-0.05,7.51,-22.64,-111.45
5,1715781915560,0.39,0.76,-0.05,7.51,-22.64,-111.45
6,1715781915570,0.39,0.76,-0.05,7.51,-22.64,-111.45
7,1715781915580,0.39,0.76,-0.05,7.51,-22.64,-111.45
8,1715781915590,0.39,0.76,-0.05,7.51,-22.64,-111.45
9,1715781915600,0.39,0.76,-0.05,7.51,-22.64,-111.45
10,1715781915610,0.39,0.76,-0.05,7.51,-22.64,-111.45
11,1715781915620,0.39,0.76,-0.05,7.51,-22.64,-111.45
12,1715781915630,0.3588888888888889,0.8014814814814815,-0.06037037037037038,0.8844855967078187,-33.5041975308642,-109.03230452674896
13,1715781915640,0.33,0.84,-0.07,-5.37,-43.76,-106.75
14,1715781915650,0.33,0.84,-0.07,-5.37,-43.76,-106.75
15,1715781915660,0.31275193798449613,0.8667054263565891,-0.043294573643410855,-5.368372093023256,-33.15422480620155,-102.0715503875969
16,1715781915670,0.3,0.88,-0.030000000000000002,-3.05,-26.25,-101.01
17,1715781915680,0.3,0.88,-0.03,-3.05,-26.25,-101.01
18,1715781915690,0.3,0.88,-0.029999999999999995,-3.05,-26.25,-101.01
19,1715781915700,0.2515267175572519,0.9236259541984733,-0.02515267175572519,0.6775954198473282,-6.603778625954199,-95.32893129770993
20,1715781915710,0.2,0.97,-0.02,4.64,14.28,-89.29
21,1715781915720,0.2,0.97,-0.02,4.64,14.28,-89.29
22,1715781915730,0.025708661417322837,0.9791732283464567,-0.06586614173228347,4.470708661417323,24.90472440944882,-85.9448031496063
23,1715781915740,0.01,0.98,-0.07,4.39,29.97,-84.35
24,1715781915750,0.01,0.98,-0.07,4.39,29.97,-84.35
25,1715781915760,-0.005252918287937744,0.9843579766536965,-0.07108949416342414,4.37817120622568,29.879260700389104,-84.21038910505837
26,1715781915770,-0.13,1.02,-0.08,2.87,18.31,-66.41
27,1715781915780,-0.13,1.02,-0.08,2.87,18.31,-66.41
28,1715781915790,-0.13,1.02,-0.07999999999999999,2.87,18.31,-66.41
29,1715781915800,-0.14432835820895523,1.0235820895522387,-0.08119402985074628,3.0085074626865675,18.645522388059703,-63.59686567164179
30,1715781915810,-0.25,1.05,-0.09,4.03,21.12,-42.85
31,1715781915820,-0.25,1.05,-0.09,4.03,21.12,-42.85
32,1715781915830,-0.25,1.05,-0.09,4.03,21.12,-42.85
33,1715781915840,-0.2592116182572614,1.05,-0.08385892116182574,2.8536514522821577,19.656846473029045,-35.97116182572614
34,1715781915850,-0.28,1.05,-0.07,-1.22,14.59,-12.15
35,1715781915860,-0.28,1.05,-0.07,-1.22,14.59,-12.15
36,1715781915870,-0.28,1.05,-0.07,-1.22,14.59,-12.15
37,1715781915880,-0.28,1.05,-0.07,-1.22,14.59,-12.15
38,1715781915890,-0.28,1.0792105263157894,-0.001842105263157895,-0.2073684210526316,19.516842105263155,29.397105263157894
39,1715781915900,-0.28,1.08,0.0,-0.18,19.65,30.52
40,1715781915910,-0.28,1.08,0.0,-0.18,19.65,30.52
41,1715781915920,-0.18581132075471699,1.0292830188679245,-0.014490566037735849,1.6747924528301887,21.113547169811323,47.32181132075472
42,1715781915930,-0.15,1.01,-0.02,2.38,21.67,53.71
43,1715781915940,-0.15,1.01,-0.02,2.38,21.67,53.71
44,1715781915950,-0.14728301886792453,1.0087924528301886,-0.02060377358490566,2.38,21.67,53.71
45,1715781915960,-0.06,0.97,-0.04,6.994473684210527,24.479210526315786,77.6021052631579
46,1715781915970,-0.06,0.97,-0.04,7.39,24.72,79.65
47,1715781915980,-0.059166666666666666,0.9702777777777778,-0.04083333333333334,7.298333333333333,24.653888888888886,79.87555555555556
48,1715781915990,-0.03,0.98,-0.07,4.09,22.34,87.77
49,1715781916000,-0.03,0.98,-0.07,4.09,22.34,87.77
50,1715781916010,-0.03,0.98,-0.07,4.09,22.34,87.77
51,1715781916020,-0.011686746987951807,0.9464257028112449,-0.07,1.4680722891566262,19.34722891566265,92.12469879518072
52,1715781916030,0.03,0.87,-0.07,-8.0,8.54,107.85
53,1715781916040,0.03,0.87,-0.07,-8.0,8.54,107.85
54,1715781916050,0.03,0.87,-0.07,-8.0,8.54,107.85
55,1715781916060,0.11515037593984961,0.8416165413533835,-0.052969924812030084,-8.662857142857144,1.4884210526315786,114.42187969924812
56,1715781916070,0.18,0.82,-0.04,-9.52,-7.63,122.92
57,1715781916080,0.18,0.82,-0.04,-9.52,-7.629999999999999,122.92000000000002
58,1715781916090,0.18,0.82,-0.04,-9.52,-7.63,122.92
59,1715781916100,0.23842696629213483,0.7557303370786517,-0.028314606741573035,-10.719438202247192,-2.4468539325842693,129.33011235955055
60,1715781916110,0.28,0.71,-0.02,-12.57,5.55,139.22
61,1715781916120,0.28,0.71,-0.02,-12.57,5.55,139.22
62,1715781916130,0.28,0.71,-0.02,-12.57,5.55,139.22
63,1715781916140,0.33606635071090046,0.6859715639810426,-0.02,-8.849289099526066,14.692511848341232,146.6275355450237
64,1715781916150,0.35,0.68,-0.02,-7.08,19.04,150.15
65,1715781916160,0.35,0.68,-0.02,-7.08,19.04,150.15
66,1715781916170,0.35,0.68,-0.02,-7.08,19.04,150.15
67,1715781916180,0.4835483870967742,0.5047177419354839,-0.028346774193548384,-16.72592741935484,-2.2023387096774196,149.32608870967744
68,1715781916190,0.51,0.47,-0.03,-24.29,-18.86,148.68
69,1715781916200,0.51,0.47,-0.03,-24.29,-18.86,148.68
70,1715781916210,0.5185714285714286,0.46499999999999997,-0.027142857142857142,-24.29,-18.86,148.68
71,1715781916220,0.63,0.4,0.01,-17.931133603238866,-52.33562753036437,148.73635627530365
72,1715781916230,0.63,0.4,0.01,-17.52,-54.5,148.74
73,1715781916240,0.63,0.4,0.01,-17.52,-54.5,148.74
74,1715781916250,0.7233333333333334,0.36333333333333334,0.030000000000000002,-11.51915611814346,-44.92497890295358,148.5271729957806
75,1715781916260,0.91,0.29,0.07,9.83,-10.86,147.77
76,1715781916270,0.91,0.29,0.07,9.83,-10.859999999999998,147.77
77,1715781916280,0.91,0.29,0.07,9.83,-10.86,147.77
78,1715781916290,0.8807438016528927,0.28268595041322314,0.03830578512396695,6.480165289256199,0.34512396694214953,150.00078512396695
79,1715781916300,0.79,0.26,-0.05999999999999999,-3.9100000000000006,35.1,156.92
80,1715781916310,0.79,0.26,-0.06,-3.91,35.1,156.92
81,1715781916320,0.79,0.26,-0.06,-3.91,35.1,156.92
82,1715781916330,0.8528125000000001,0.191953125,-0.023359374999999998,5.77078125,10.028515625,156.568046875
83,1715781916340,0.91,0.13,0.01,19.47,-25.45,156.07
84,1715781916350,0.91,0.13,0.01,19.47,-25.45,156.07
85,1715781916360,0.91,0.13,0.01,19.47,-25.45,156.07
86,1715781916370,0.9026748971193416,0.13,-0.10720164609053498,6.880452674897119,13.312880658436216,156.6354732510288
87,1715781916380,0.9,0.13,-0.15,-0.79,36.93,156.98
88,1715781916390,0.9,0.13,-0.15,-0.79,36.93,156.98
89,1715781916400,0.9,0.13,-0.15,-0.79,36.93,156.98
90,1715781916410,0.9,0.13,-0.15,-0.79,36.93,156.98
91,1715781916420,0.8198181818181819,-0.003636363636363636,-0.03418181818181818,0.7869090909090909,-13.753818181818183,144.69436363636362
92,1715781916430,0.81,-0.02,-0.02,0.9800000000000001,-19.96,143.19
93,1715781916440,1.0657480314960632,-0.11700787401574804,-0.13464566929133856,2.3100787401574805,38.94464566929134,164.6740157480315
94,1715781916450,1.1,-0.13,-0.15,2.62,52.67,169.68
95,1715781916460,1.1,-0.13,-0.15,2.62,52.67,169.68
96,1715781916470,1.1,-0.13,-0.15,2.62,52.67,169.68
97,1715781916480,0.8941501976284585,-0.19861660079051383,-0.04217391304347826,-9.402450592885376,-8.298774703557312,144.7785770750988
98,1715781916490,0.89,-0.2,-0.04,-12.82,-25.63,137.7
99,1715781916500,0.89,-0.2,-0.04,-12.82,-25.63,137.7
100,1715781916510,0.9172177419354839,-0.21814516129032258,-0.033951612903225806,-12.82,-25.63,137.7
101,1715781916520,1.16,-0.38,0.02,11.00563909774436,60.696879699248115,166.77191729323306
102,1715781916530,1.16,-0.38,0.02,11.84,63.72,167.79
103,1715781916540,1.16,-0.38,0.02,11.84,63.72,167.79
104,1715781916550,1.055,-0.374,-0.013,6.628,47.239999999999995,162.064
105,1715781916560,0.81,-0.35999999999999993,-0.08999999999999998,-14.22,-18.68,139.16
106,1715781916570,0.81,-0.36,-0.09,-14.22,-18.68,139.16
107,1715781916580,0.81,-0.36,-0.09,-14.22,-18.68,139.16
108,1715781916590,0.9766009852216748,-0.4739901477832512,-0.006699507389162558,-11.82960591133005,-14.379507389162562,140.25729064039407
109,1715781916600,1.19,-0.62,0.1,5.19,16.24,148.07
110,1715781916610,1.19,-0.62,0.1,5.19,16.24,148.07
111,1715781916620,1.19,-0.62,0.1,5.19,16.24,148.07
112,1715781916630,0.9554339622641509,-0.5362264150943395,0.01064150943396227,0.06200000000000028,6.571999999999999,142.25799999999998
113,1715781916640,0.77,-0.47,-0.06,-7.629999999999999,-7.93,133.54
114,1715781916650,0.77,-0.47,-0.06,-7.63,-7.93,133.54
115,1715781916660,0.7700000000000001,-0.47,-0.06,-7.63,-7.93,133.54
116,1715781916670,1.0652066115702479,-0.7108264462809918,0.1109090909090909,8.50413223140496,13.635082644628099,147.18983471074378
117,1715781916680,1.15,-0.78,0.16000000000000003,15.75,23.32,153.32
118,1715781916690,1.15,-0.78,0.16,15.75,23.32,153.32
119,1715781916700,1.15,-0.7800000000000001,0.16,15.75,23.32,153.31999999999996
120,1715781916710,0.8812741312741312,-0.6993822393822393,-0.1983011583011583,16.525250965250965,-17.76030888030888,145.615444015444
121,1715781916720,0.85,-0.69,-0.24,16.72,-28.08,143.68
122,1715781916730,0.85,-0.69,-0.24,16.72,-28.08,143.68
123,1715781916740,0.85,-0.69,-0.24,16.72,-28.08,143.68
124,1715781916750,1.270952380952381,-0.8468253968253968,-0.03365079365079365,0.7760714285714284,-27.324285714285715,116.05535714285715
125,1715781916760,1.36,-0.88,0.01,-2.69,-27.16,110.05
126,1715781916770,1.36,-0.88,0.01,-2.69,-27.16,110.05
127,1715781916780,1.3209504132231407,-0.861404958677686,-0.019752066115702478,-2.69,-27.16,110.05
128,1715781916790,1.15,-0.78,-0.15,5.40669387755102,4.191714285714286,96.52648979591837
129,1715781916800,1.15,-0.78,-0.15,5.68,5.25,96.07
130,1715781916810,1.15,-0.78,-0.15,5.68,5.25,96.07
131,1715781916820,1.1780753138075315,-0.7953138075313808,-0.1015062761506276,2.1289539748953974,9.134309623430962,88.31267782426778
132,1715781916830,1.26,-0.84,0.04,-13.18,25.88,54.87
133,1715781916840,1.2599999999999998,-0.84,0.04,-13.18,25.88,54.87
134,1715781916850,1.26,-0.84,0.039999999999999994,-13.18,25.88,54.87
135,1715781916860,1.153359375,-0.78921875,-0.015859375000000002,-8.76984375,28.86046875,46.81140625
136,1715781916870,1.05,-0.74,-0.07,-1.89,33.51,34.24
137,1715781916880,1.05,-0.74,-0.07,-1.89,33.51,34.24
138,1715781916890,1.05,-0.74,-0.07,-1.89,33.51,34.24
139,1715781916900,1.1124761904761904,-0.7634285714285713,-0.023142857142857146,-5.068095238095238,17.910285714285713,15.874666666666668
140,1715781916910,1.13,-0.77,-0.01,-6.59,10.44,7.08
141,1715781916920,1.13,-0.77,-0.01,-6.59,10.44,7.080000000000001
142,1715781916930,1.13,-0.77,-0.01,-6.59,10.44,7.08
143,1715781916940,1.13,-0.77,-0.01,-6.59,10.44,7.08
144,1715781916950,1.13,-0.77,-0.01,-6.59,10.44,7.08
145,1715781916960,1.1088311688311687,-0.7770562770562771,-0.01,-6.59,10.44,7.08
146,1715781916970,1.1,-0.78,-0.01,-5.58252336448598,8.14570093457944,-5.302803738317758
147,1715781916980,1.101409691629956,-0.7785903083700441,-0.01,-4.072819383259912,5.782422907488987,-23.16
148,1715781916990,1.11,-0.77,-0.01,-2.14,7.93,-42.66
149,1715781917000,1.11,-0.77,-0.01,-2.14,7.93,-42.66
150,1715781917010,1.11,-0.77,-0.010000000000000002,-2.14,7.93,-42.66
151,1715781917020,1.11,-0.77,-0.01,-2.14,7.93,-42.66
152,1715781917030,1.11,-0.77,-0.01,-2.14,7.93,-42.66
153,1715781917040,1.0941558441558443,-0.7677489177489177,-0.00896103896103896,-1.563766233766234,9.059870129870129,-51.69519480519481
154,1715781917050,1.04,-0.73,-0.03,-0.8602752293577982,13.884862385321101,-80.49587155963302
155,1715781917060,1.04,-0.73,-0.03,-0.92,14.59,-83.8
156,1715781917070,1.04,-0.7300000000000001,-0.03,-0.92,14.59,-83.8
157,1715781917080,1.04,-0.73,-0.03,-0.92,14.59,-83.8
158,1715781917090,1.0498630136986302,-0.7497260273972602,0.019315068493150688,-0.38004566210045665,9.730410958904109,-99.49794520547947
159,1715781917100,1.05,-0.75,0.02,-0.37,9.64,-99.79
160,1715781917110,1.05,-0.75,0.02,-0.37,9.64,-99.79
161,1715781917120,1.0218260869565219,-0.7147826086956522,0.00591304347826087,-0.7079130434782609,11.455652173913045,-108.77747826086956
162,1715781917130,1.01,-0.7,0.0,-1.04,13.24,-117.61
163,1715781917140,1.01,-0.6999999999999998,0.0,-1.04,13.24,-117.61
164,1715781917150,1.01,-0.7,0.0,-1.04,13.24,-117.61
165,1715781917160,1.0458549222797928,-0.7,0.04481865284974094,3.4443523316062175,2.5318134715025904,-125.65310880829016
166,1715781917170,1.05,-0.6999999999999998,0.05000000000000001,4.58,-0.18,-127.69
167,1715781917180,1.05,-0.7,0.05,4.58,-0.18,-127.69
168,1715781917190,1.05,-0.7,0.05,4.58,-0.18,-127.69
169,1715781917200,1.0073660714285715,-0.6317857142857143,-0.0096875,1.6638392857142856,5.643794642857143,-137.52138392857142
170,1715781917210,1.0,-0.62,-0.02,1.16,6.65,-139.22
171,1715781917220,1.0,-0.62,-0.02,1.16,6.65,-139.22
172,1715781917230,1.004585152838428,-0.6163318777292576,-0.013580786026200872,1.16,6.65,-139.22
173,1715781917240,1.05,-0.58,0.05,4.633521126760564,-12.091314553990609,-150.71990610328638
174,1715781917250,,,,,,
175,1715781917260,1.05,-0.58,0.05,4.7,-12.45,-150.94
176,1715781917270,1.0309558823529412,-0.5446323529411764,0.036397058823529414,5.161176470588235,-8.953345588235294,-150.84091911764705
177,1715781917280,0.98,-0.45,0.0,7.26,6.96,-150.39
178,1715781917290,0.98,-0.45,0.0,7.26,6.96,-150.39
179,1715781917300,0.98,-0.45,0.0,7.26,6.96,-150.39
180,1715781917310,0.9820762711864407,-0.4476271186440678,0.0011864406779661019,7.3065254237288135,6.438559322033898,-150.6259322033898
181,1715781917320,1.05,-0.37,0.04,9.09,-13.55,-159.67
182,1715781917330,1.05,-0.37,0.04,9.09,-13.55,-159.67
183,1715781917340,1.05,-0.37,0.04,9.09,-13.55,-159.67
184,1715781917350,1.002,-0.316,0.01,10.572938775510204,-2.1824897959183676,-155.8386530612245
185,1715781917360,0.97,-0.28,-0.010000000000000002,12.02,8.91,-152.1
186,1715781917370,0.97,-0.28,-0.01,12.02,8.91,-152.1
187,1715781917380,0.97,-0.28,-0.01,12.02,8.91,-152.1
188,1715781917390,0.9931168831168831,-0.17982683982683983,0.013116883116883119,7.734285714285714,-6.398571428571429,-158.1342857142857
189,1715781917400,1.0,-0.15,0.02,4.52,-17.88,-162.66
190,1715781917410,1.0,-0.15,0.02,4.52,-17.88,-162.66
191,1715781917420,1.0,-0.15,0.02,4.52,-17.88,-162.66
192,1715781917430,0.9419534883720929,-0.13065116279069766,0.06837209302325582,13.261348837209303,20.3833023255814,-158.44474418604648
193,1715781917440,0.94,-0.13,0.07,16.05,32.59,-157.1
194,1715781917450,0.94,-0.13,0.07,16.05,32.59,-157.1
195,1715781917460,0.94,-0.13,0.07,16.05,32.59,-157.1
196,1715781917470,0.8197500000000001,0.10124999999999999,-0.059500000000000004,14.61925,-6.727333333333333,-157.35058333333333
197,1715781917480,0.81,0.12,-0.07,14.28,-16.05,-157.41
198,1715781917490,0.81,0.12,-0.07,14.28,-16.05,-157.41
199,1715781917500,0.8446415094339623,0.11230188679245283,-0.05460377358490566,13.213132075471698,-14.888943396226416,-157.0676603773585
200,1715781917510,0.99,0.08,0.01,2.5,-3.23,-153.63
201,1715781917520,0.9900000000000001,0.08,0.01,2.5,-3.23,-153.63
202,1715781917530,0.99,0.08,0.01,2.5,-3.23,-153.63
203,1715781917540,0.9817826086956521,0.08782608695652173,0.006478260869565217,2.752869565217391,-2.4574782608695656,-153.64252173913042
204,1715781917550,0.78,0.28,-0.08,9.77,18.98,-153.99
205,1715781917560,0.78,0.28,-0.08,9.77,18.98,-153.99
206,1715781917570,0.78,0.27999999999999997,-0.08,9.77,18.98,-153.99
207,1715781917580,0.78,0.31217021276595747,-0.0585531914893617,8.685744680851064,13.576425531914893,-150.42744680851067
208,1715781917590,0.78,0.34,-0.04,7.32,6.77,-145.94
209,1715781917600,0.78,0.33999999999999997,-0.04,7.320000000000001,6.77,-145.94
210,1715781917610,0.78,0.34,-0.04,7.32,6.77,-145.94
211,1715781917620,0.7732780082987553,0.3870539419087137,-0.006390041493775934,6.915020746887967,6.610663900414937,-145.0470539419087
212,1715781917630,0.77,0.41,0.01,6.1,6.29,-143.25
213,1715781917640,0.77,0.41,0.01,6.1,6.29,-143.25
214,1715781917650,0.77,0.41,0.01,6.1,6.29,-143.25
215,1715781917660,0.6008778625954199,0.5469083969465649,-0.046374045801526716,6.706106870229007,6.260992366412213,-142.17824427480915
216,1715781917670,0.56,0.58,-0.06,10.07,6.1,-136.23
217,1715781917680,0.56,0.58,-0.06,10.07,6.1,-136.23
218,1715781917690,0.5616,0.5815999999999999,-0.0588,10.07,6.1,-136.23
219,1715781917700,0.6,0.62,-0.03,1.9096103896103895,-12.47064935064935,-131.4444155844156
220,1715781917710,0.6,0.62,-0.03,1.22,-14.04,-131.04
221,1715781917720,0.6,0.62,-0.03,1.22,-14.04,-131.04
222,1715781917730,0.5611387900355872,0.6319572953736655,-0.02103202846975089,1.7446619217081851,-12.665729537366547,-130.40074733096085
223,1715781917740,0.47,0.66,0.0,7.63,2.75,-123.23
224,1715781917750,0.4699999999999999,0.66,0.0,7.63,2.75,-123.23
225,1715781917760,0.47,0.66,0.0,7.63,2.75,-123.23
226,1715781917770,0.47,0.6815767634854771,-0.021576763485477178,8.18344398340249,3.77597510373444,-119.61481327800831
227,1715781917780,0.47,0.71,-0.05,9.34,5.92,-112.06
228,1715781917790,0.47,0.71,-0.05,9.34,5.92,-112.06
229,1715781917800,0.47,0.71,-0.05,9.34,5.92,-112.06
230,1715781917810,0.4322844827586207,0.7369396551724138,-0.03922413793103448,11.759525862068966,3.679698275862069,-113.10120689655172
231,1715781917820,0.4,0.76,-0.03,15.01,0.67,-114.5
232,1715781917830,0.4,0.76,-0.029999999999999995,15.01,0.67,-114.5
233,1715781917840,0.4,0.76,-0.029999999999999995,15.01,0.67,-114.5
234,1715781917850,0.4,0.80625,-0.053125,10.541125,-5.673125,-112.24324999999999
235,1715781917860,0.4,0.82,-0.05999999999999999,8.0,-9.28,-110.96
236,1715781917870,0.4,0.82,-0.05999999999999999,8.0,-9.28,-110.96
237,1715781917880,0.4,0.82,-0.05999999999999999,8.0,-9.28,-110.96
238,1715781917890,0.3150197628458498,0.811501976284585,-0.03450592885375494,10.379446640316205,-1.3428458498023714,-112.04774703557311
239,1715781917900,0.3,0.81,-0.03,10.8,0.06,-112.24
240,1715781917910,0.3,0.81,-0.03,10.8,0.06,-112.24
241,1715781917920,0.29766536964980544,0.8123346303501946,-0.030972762645914396,10.8,0.06,-112.24
242,1715781917930,0.18,0.9299999999999999,-0.08,18.308127208480567,19.110742049469966,-98.21879858657243
243,1715781917940,0.18,0.93,-0.08,19.1,21.12,-96.74
244,1715781917950,0.18,0.93,-0.07999999999999999,19.1,21.12,-96.74000000000001
245,1715781917960,0.1325943396226415,0.9394811320754718,-0.08316037735849056,18.646509433962265,22.295849056603775,-96.3133962264151
246,1715781917970,0.03,0.96,-0.09,14.04,34.24,-91.98
247,1715781917980,0.03,0.96,-0.09,14.04,34.24,-91.98
248,1715781917990,0.03,0.96,-0.09,14.04,34.24,-91.97999999999999
249,1715781918000,-0.030083333333333337,0.9943333333333333,-0.09429166666666666,15.74625,36.8205,-85.9285
250,1715781918010,-0.11,1.04,-0.10000000000000002,19.29,42.18,-73.36
251,1715781918020,-0.11,1.04,-0.1,19.29,42.18,-73.36
252,1715781918030,-0.11,1.04,-0.1,19.29,42.18,-73.36
253,1715781918040,-0.18185483870967742,1.0465322580645162,-0.13266129032258064,15.92733870967742,35.851451612903226,-57.55846774193548
254,1715781918050,-0.22,1.05,-0.15,12.51,29.42,-41.5
255,1715781918060,-0.22,1.05,-0.15,12.51,29.42,-41.5
256,1715781918070,-0.22,1.05,-0.15,12.51,29.42,-41.5
257,1715781918080,-0.212890625,1.057109375,-0.171328125,8.0475,9.01375,-22.775
258,1715781918090,-0.21,1.06,-0.18,5.37,-3.23,-11.54
259,1715781918100,-0.21,1.06,-0.18,5.37,-3.23,-11.54
260,1715781918110,-0.21,1.06,-0.18,5.37,-3.23,-11.54
261,1715781918120,-0.1437984496124031,1.0316279069767442,-0.13271317829457366,0.28984496124031006,1.2866279069767443,14.491589147286822
262,1715781918130,-0.14,1.03,-0.13,-0.67,2.14,19.41
263,1715781918140,-0.14,1.03,-0.13,-0.67,2.14,19.41
264,1715781918150,-0.13983805668016197,1.0298785425101213,-0.12995951417004048,-0.67,2.14,19.41
265,1715781918160,-0.1,1.0,-0.12,-2.7074242424242425,8.576818181818181,44.94090909090909
266,1715781918170,-0.1,1.0,-0.12,-2.93,9.28,47.73
267,1715781918180,-0.1,1.0,-0.12,-2.93,9.28,47.73
268,1715781918190,-0.08904942965779468,0.9872243346007604,-0.12,-3.2192775665399243,8.78996197718631,49.43463878326996
269,1715781918200,-0.04,0.93,-0.12,-6.1,3.91,66.41
270,1715781918210,-0.04,0.93,-0.12,-6.1,3.91,66.41
271,1715781918220,-0.04,0.93,-0.12,-6.1,3.91,66.41
272,1715781918230,-0.0037931034482758617,0.93,-0.11597701149425287,-6.414789272030651,4.721187739463602,72.89344827586207
273,1715781918240,0.05,0.93,-0.11,-7.14,6.59,87.83
274,1715781918250,0.05,0.93,-0.11,-7.14,6.59,87.83
275,1715781918260,0.05,0.93,-0.11,-7.14,6.59,87.83
276,1715781918270,0.09210526315789473,0.8721052631578947,-0.11,-9.401052631578947,10.240526315789474,94.84473684210525
277,1715781918280,0.13,0.82,-0.11,-12.51,15.26,104.49
278,1715781918290,0.13,0.82,-0.11,-12.51,15.26,104.49
279,1715781918300,0.13,0.82,-0.11,-12.51,15.26,104.49
280,1715781918310,0.26206349206349205,0.786984126984127,-0.060476190476190475,-10.825238095238095,24.874761904761904,117.56869047619048
281,1715781918320,0.29,0.78,-0.05,-10.19,28.5,122.5
282,1715781918330,0.29,0.78,-0.05,-10.19,28.5,122.5
283,1715781918340,0.29,0.78,-0.05,-10.19,28.5,122.5
284,1715781918350,0.29,0.7894444444444445,-0.09722222222222222,-14.076923076923077,43.92846153846154,127.49179487179488
285,1715781918360,0.29,0.79,-0.1,-15.08,47.91,128.78
286,1715781918370,0.29,0.79,-0.1,-15.08,47.91,128.78
287,1715781918380,0.298030888030888,0.780965250965251,-0.09498069498069499,-15.08,47.91,128.78
288,1715781918390,0.45,0.61,0.0,-25.71231939163498,24.5174144486692,136.15737642585552
289,1715781918400,0.45,0.61,0.0,-29.42,16.36,138.73
290,1715781918410,0.45,0.61,0.0,-29.42,16.36,138.73
291,1715781918420,0.45250980392156864,0.6090588235294118,-0.00031372549019607844,-29.601960784313725,15.45992156862745,138.71682352941176
292,1715781918430,0.53,0.58,-0.01,-35.22,-12.33,138.31
293,1715781918440,0.53,0.58,-0.01,-35.22,-12.33,138.31
294,1715781918450,0.53,0.58,-0.01,-35.22,-12.33,138.31
295,1715781918460,0.5856399999999999,0.51152,0.04136,-31.65816,-9.52908,140.48872
296,1715781918470,0.66,0.42,0.11,-17.76,1.4,148.99
297,1715781918480,0.66,0.42,0.11,-17.76,1.4,148.99
298,1715781918490,0.66,0.42,0.11,-17.76,1.4,148.99
299,1715781918500,0.7197785977859779,0.4000738007380074,0.003726937269372692,-21.95129151291513,-14.518671586715866,153.4009225092251
300,1715781918510,0.75,0.39,-0.05,-26.92,-33.39,158.63
301,1715781918520,0.75,0.39,-0.05,-26.92,-33.39,158.63
302,1715781918530,0.75,0.39,-0.05,-26.92,-33.39,158.63
303,1715781918540,0.8611969111969112,0.23432432432432432,0.06861003861003862,-19.491814671814673,-38.945212355212355,140.90046332046333
304,1715781918550,0.9,0.18,0.11,-15.26,-42.11,130.8
305,1715781918560,0.9,0.18,0.11,-15.26,-42.11,130.8
306,1715781918570,0.9,0.18,0.11,-15.26,-42.11,130.8
307,1715781918580,0.8830769230769231,0.2053846153846154,-0.0676923076923077,-3.199384615384615,-2.648461538461538,152.9569230769231
308,1715781918590,0.88,0.21,-0.1,5.37,25.39,168.7
309,1715781918600,0.88,0.21,-0.1,5.37,25.39,168.7
310,1715781918610,0.88,0.21,-0.1,5.37,25.39,168.7
311,1715781918620,1.1172623574144487,-0.0964638783269962,0.058174904942965774,-12.76277566539924,-28.590152091254755,133.40425855513308
312,1715781918630,1.12,-0.1,0.05999999999999999,-15.01,-35.28,129.03
313,1715781918640,1.12,-0.1,0.06,-15.01,-35.28,129.03
314,1715781918650,1.112928870292887,-0.08694560669456067,0.05292887029288702,-13.45,-33.862510460251045,129.47493723849374
315,1715781918660,0.99,0.14,-0.07,13.67,-9.22,137.21
316,1715781918670,0.9899999999999999,0.14,-0.07,13.67,-9.22,137.21
317,1715781918680,0.99,0.14,-0.07,13.67,-9.22,137.21
318,1715781918690,0.9828571428571429,0.11285714285714288,-0.07142857142857142,10.042857142857143,-1.6342857142857143,137.75
319,1715781918700,0.94,-0.05,-0.08,-11.72,43.88,140.99
320,1715781918710,0.94,-0.05,-0.08,-11.719999999999999,43.879999999999995,140.99
321,1715781918720,0.94,-0.05,-0.08,-11.72,43.88,140.99
322,1715781918730,0.9297211155378485,-0.07569721115537849,-0.08,-9.74394422310757,16.388764940239042,140.12227091633466
323,1715781918740,0.92,-0.1,-0.08,-6.71,-25.820000000000004,138.79
324,1715781918750,0.9200000000000002,-0.10000000000000002,-0.08,-6.71,-25.82,138.79
325,1715781918760,0.92,-0.1,-0.08,-6.71,-25.82,138.79
326,1715781918770,1.0948275862068966,-0.2618773946360153,-0.034674329501915714,-11.559999999999999,-1.0311111111111109,135.5011111111111
327,1715781918780,1.19,-0.35,-0.01,-15.44,18.8,132.87
328,1715781918790,1.19,-0.35,-0.01,-15.44,18.8,132.87
329,1715781918800,1.19,-0.35,-0.01,-15.44,18.8,132.87
330,1715781918810,1.0802057613168725,-0.30456790123456784,-0.013786008230452675,-11.74485596707819,12.098765432098766,132.77913580246914
331,1715781918820,0.9,-0.23,-0.02,-5.68,1.1,132.63
332,1715781918830,0.9,-0.23,-0.02,-5.68,1.1,132.63
333,1715781918840,0.9,-0.23,-0.02,-5.68,1.1,132.63
334,1715781918850,1.13,-0.48,0.01,-7.767973568281938,16.229251101321587,130.33176211453744
335,1715781918860,1.13,-0.48,0.01,-9.95,32.04,127.93000000000002
336,1715781918870,1.13,-0.48,0.01,-9.95,32.04,127.93
337,1715781918880,1.13,-0.48,0.01,-9.95,32.04,127.93
338,1715781918890,0.9435055350553505,-0.40147601476014766,-0.048892988929889296,-10.84321033210332,-3.0602214022140224,125.35833948339483
339,1715781918900,0.94,-0.4,-0.05,-10.86,-3.72,125.31
340,1715781918910,0.94,-0.4,-0.05,-10.86,-3.72,125.31
341,1715781918920,0.9462264150943396,-0.40747169811320755,-0.04667924528301887,-10.404226415094339,-2.95,125.46441509433963
342,1715781918930,1.09,-0.58,0.03,0.12,14.83,129.03
343,1715781918940,1.09,-0.58,0.03,0.12,14.83,129.03
344,1715781918950,1.09,-0.58,0.03,0.12,14.83,129.03
345,1715781918960,1.0584584980237155,-0.5642292490118577,-0.04885375494071146,-7.089960474308301,7.210237154150198,122.30667984189724
346,1715781918970,1.03,-0.55,-0.12,-22.4,-8.97,108.03
347,1715781918980,1.03,-0.55,-0.12,-22.4,-8.97,108.03
348,1715781918990,1.03,-0.55,-0.12,-22.4,-8.969999999999999,108.03
349,1715781919000,1.1497391304347826,-0.6630869565217391,-0.0002608695652173913,-15.176,1.5406956521739126,103.13360869565217
350,1715781919010,1.21,-0.72,0.05999999999999999,-9.52,9.77,99.3
351,1715781919020,1.2100000000000002,-0.72,0.06,-9.52,9.77,99.3
352,1715781919030,1.21,-0.72,0.06,-9.52,9.77,99.3
353,1715781919040,1.1363983050847457,-0.6545762711864407,-0.029957627118644067,-11.771271186440678,11.721101694915255,90.01521186440678
354,1715781919050,1.12,-0.64,-0.05,-12.82,12.63,85.69
355,1715781919060,1.12,-0.64,-0.05,-12.82,12.63,85.69
356,1715781919070,1.12,-0.64,-0.05,-12.82,12.63,85.69
357,1715781919080,1.190077519379845,-0.6837984496124031,0.028837209302325584,-6.317790697674418,20.258333333333333,65.45062015503876
358,1715781919090,1.2,-0.69,0.04,-4.39,22.52,59.45
359,1715781919100,1.2,-0.69,0.04,-4.39,22.52,59.45
360,1715781919110,1.1971653543307086,-0.6878740157480315,0.035748031496062996,-4.39,22.52,59.45
361,1715781919120,1.16,-0.66,-0.02,-1.28,30.82,45.04
362,1715781919130,1.16,-0.66,-0.02,-1.28,30.82,45.04
363,1715781919140,1.16,-0.66,-0.02,-1.28,30.82,45.04
364,1715781919150,1.162841726618705,-0.6628417266187051,-0.011474820143884892,-0.8816546762589927,28.52863309352518,39.91967625899281
365,1715781919160,1.1699999999999997,-0.67,0.01,0.98,17.82,15.99
366,1715781919170,1.17,-0.67,0.01,0.98,17.82,15.989999999999998
367,1715781919180,1.17,-0.67,0.01,0.98,17.82,15.989999999999998
368,1715781919190,1.1671317829457364,-0.6728682170542637,0.01,0.7505426356589147,16.33139534883721,8.813720930232558
369,1715781919200,1.16,-0.68,0.01,0.18,12.63,-9.03
370,1715781919210,1.1600000000000001,-0.68,0.01,0.18,12.63,-9.030000000000001
371,1715781919220,1.16,-0.68,0.01,0.18,12.63,-9.03
372,1715781919230,1.16,-0.68,0.028370370370370372,0.574962962962963,7.027037037037037,-21.058
373,1715781919240,1.16,-0.68,0.05,1.04,0.43,-35.22
374,1715781919250,1.16,-0.68,0.05,1.04,0.43,-35.22
375,1715781919260,1.16,-0.68,0.05,1.04,0.43,-35.22
376,1715781919270,1.1448181818181817,-0.672409090909091,0.01963636363636364,3.645909090909091,9.7645,-49.205045454545456
377,1715781919280,1.14,-0.67,0.01,4.94,14.4,-56.15
378,1715781919290,1.14,-0.67,0.01,4.94,14.4,-56.15
379,1715781919300,1.14,-0.67,0.01,4.94,14.4,-56.15
380,1715781919310,1.1215510204081633,-0.6423265306122449,0.019224489795918367,3.167265306122449,6.77869387755102,-71.45073469387755
381,1715781919320,1.12,-0.64,0.02,2.5,3.91,-77.21
382,1715781919330,1.12,-0.64,0.02,2.5,3.9100000000000006,-77.21
383,1715781919340,1.12,-0.64,0.02,2.5,3.91,-77.21
384,1715781919350,1.12,-0.64,0.02,5.43293893129771,23.479274809160305,-90.07961832061069
385,1715781919360,1.12,-0.64,0.02,5.49,23.86,-90.33
386,1715781919370,1.12,-0.64,0.02,5.49,23.86,-90.33
387,1715781919380,1.1280686695278972,-0.6460515021459228,0.0240343347639485,5.266909871244636,21.553090128755365,-92.4148068669528
388,1715781919390,1.16,-0.67,0.04,3.23,0.49,-111.45
389,1715781919400,1.16,-0.67,0.04,3.23,0.49,-111.45
390,1715781919410,1.16,-0.67,0.04,3.23,0.49,-111.45
391,1715781919420,1.171634980988593,-0.6544866920152091,0.04775665399239544,5.807642585551331,6.240570342205323,-116.90003802281369
392,1715781919430,1.19,-0.63,0.060000000000000005,12.15,20.39,-130.31
393,1715781919440,1.1899999999999997,-0.63,0.06,12.15,20.39,-130.31
394,1715781919450,1.19,-0.63,0.06,12.15,20.39,-130.31
395,1715781919460,1.1313953488372093,-0.586046511627907,0.04534883720930232,12.716511627906977,15.022790697674418,-138.17767441860462
396,1715781919470,1.07,-0.54,0.03,13.31,9.4,-146.42
397,1715781919480,1.07,-0.54,0.03,13.31,9.4,-146.42
398,1715781919490,1.07,-0.54,0.030000000000000002,13.31,9.4,-146.42
399,1715781919500,1.1225660377358488,-0.4949433962264151,0.06003773584905661,14.836792452830188,3.9600000000000004,-149.9867924528302
400,1715781919510,1.14,-0.48,0.07,15.69,0.92,-151.98
401,1715781919520,1.14,-0.48,0.07,15.69,0.92,-151.98
402,1715781919530,1.14,-0.48,0.07,15.69,0.92,-151.98
403,1715781919540,1.0457587548638132,-0.41268482490272373,0.06326848249027238,17.204591439688716,8.14964980544747,-157.7287159533074
404,1715781919550,1.0,-0.38,0.06,17.94,11.66,-160.52
405,1715781919560,1.0,-0.38,0.06,17.94,11.66,-160.52
406,1715781919570,1.0026568265682658,-0.3760147601476015,0.060664206642066426,17.94,11.66,-160.52
407,1715781919580,1.04,-0.32,0.06999999999999999,16.348438818565402,-9.010886075949367,-160.46177215189874
408,1715781919590,1.04,-0.32,0.07,16.3,-9.64,-160.46
409,1715781919600,1.04,-0.32,0.07,16.3,-9.64,-160.46
410,1715781919610,1.0024705882352942,-0.27905882352941175,0.05635294117647059,16.3,-9.64,-160.46
411,1715781919620,0.93,-0.2,0.03,17.76,9.09,-165.16
412,1715781919630,0.93,-0.2,0.03,17.76,9.09,-165.16
413,1715781919640,0.93,-0.2,0.03,17.76,9.09,-165.15999999999997
414,1715781919650,0.9728044280442805,-0.19571955719557196,0.04712177121771218,16.304649446494466,4.498118081180812,-164.73970479704798
415,1715781919660,1.03,-0.19,0.07,13.12,-5.55,-163.82
416,1715781919670,1.03,-0.19,0.07,13.12,-5.55,-163.82
417,1715781919680,1.03,-0.19,0.07,13.12,-5.55,-163.82
418,1715781919690,0.9778000000000001,-0.12040000000000001,0.07,14.56648,-1.1223599999999998,-164.28116
419,1715781919700,0.88,0.01,0.07,18.86,12.02,-165.65
420,1715781919710,0.88,0.01,0.07,18.86,12.02,-165.65
421,1715781919720,0.88,0.01,0.07,18.86,12.02,-165.65
422,1715781919730,0.8473151750972763,0.08354085603112842,0.0209727626459144,18.958054474708174,14.267081712062256,-155.2725680933852
423,1715781919740,0.84,0.1,0.01,18.98,14.77,-152.95
424,1715781919750,0.84,0.1,0.01,18.98,14.77,-152.95
425,1715781919760,0.84,0.1,0.01,18.98,14.77,-152.95
426,1715781919770,0.7802197802197802,0.21956043956043955,0.029926739926739925,16.127252747252747,2.375860805860806,-157.67234432234434
427,1715781919780,0.78,0.22,0.03,15.44,-0.61,-158.81
428,1715781919790,0.78,0.22,0.029999999999999995,15.44,-0.61,-158.81
429,1715781919800,0.7688429752066116,0.23859504132231404,0.03,15.69,-0.3327272727272727,-157.17909090909092
430,1715781919810,0.72,0.31999999999999995,0.03,18.19,2.4400000000000004,-140.87
431,1715781919820,0.72,0.32,0.03,18.19,2.44,-140.87
432,1715781919830,0.72,0.32,0.03,18.19,2.44,-140.87
433,1715781919840,0.6859923664122137,0.3842366412213741,0.01866412213740458,18.41614503816794,4.887519083969465,-138.87763358778628
434,1715781919850,0.63,0.49,0.0,18.98,10.99,-133.91
435,1715781919860,0.63,0.49,0.0,18.98,10.99,-133.91
436,1715781919870,0.63,0.49,0.0,18.98,10.99,-133.91
437,1715781919880,0.6513765182186235,0.49,0.021376518218623485,16.653724696356278,6.2811336032388665,-132.53676113360325
438,1715781919890,0.67,0.49,0.04,13.61,0.12,-130.74
439,1715781919900,0.67,0.49,0.04,13.609999999999998,0.11999999999999998,-130.74
440,1715781919910,0.67,0.49,0.04,13.61,0.12,-130.74
441,1715781919920,0.5954054054054054,0.5583783783783784,0.04,20.86559845559846,10.39876447876448,-125.55370656370658
442,1715781919930,0.55,0.6,0.04,27.53,19.84,-120.79
443,1715781919940,0.55,0.6,0.04,27.53,19.84,-120.79
444,1715781919950,0.55,0.6,0.04,27.53,19.84,-120.79
445,1715781919960,0.428359375,0.6675781249999999,-0.0208203125,18.3365625,7.447109375,-120.26531250000001
446,1715781919970,0.37,0.7,-0.05,11.41,-1.89,-119.87
447,1715781919980,0.37,0.7,-0.05,11.41,-1.89,-119.87
448,1715781919990,0.37,0.7,-0.05,11.41,-1.89,-119.87
449,1715781920000,0.4551694915254237,0.6914830508474576,0.03516949152542373,14.686737288135594,-18.84822033898305,-111.66237288135594
450,1715781920010,0.47,0.69,0.05,16.6,-28.75,-106.87
451,1715781920020,0.47,0.69,0.05,16.6,-28.75,-106.87
452,1715781920030,0.47,0.69,0.05,16.6,-28.75,-106.87
453,1715781920040,0.36329588014981273,0.787003745318352,-0.017902621722846443,19.242846441947567,0.003108614232209565,-91.817265917603
454,1715781920050,0.36,0.79,-0.02,19.59,3.7799999999999994,-89.84
455,1715781920060,0.36,0.79,-0.02,19.59,3.78,-89.84
456,1715781920070,0.36691983122362865,0.7865400843881857,-0.014810126582278482,20.362995780590715,2.9766244725738393,-89.44843881856539
457,1715781920080,0.4,0.77,0.01,24.17,-0.98,-87.52
458,1715781920090,0.4,0.77,0.01,24.17,-0.9799999999999999,-87.52
459,1715781920100,0.4,0.77,0.01,24.17,-0.98,-87.52
460,1715781920110,0.3663529411764706,0.8189411764705883,-0.014470588235294119,24.73658823529412,-1.8332549019607844,-86.14231372549018
461,1715781920120,0.29,0.93,-0.07,27.53,-6.04,-79.35
462,1715781920130,0.29,0.93,-0.07,27.53,-6.04,-79.35
463,1715781920140,0.29,0.93,-0.07,27.53,-6.04,-79.35
464,1715781920150,0.32479820627802686,0.9039013452914798,-0.0830493273542601,30.078968609865473,0.27587443946188356,-77.70143497757847
465,1715781920160,0.37,0.87,-0.1,33.39,8.48,-75.56
466,1715781920170,0.37,0.87,-0.1,33.39,8.48,-75.56
467,1715781920180,0.37,0.87,-0.1,33.39,8.48,-75.56
468,1715781920190,0.20359375000000002,1.003125,-0.1748828125,33.2059375,32.5803125,-71.6828125
469,1715781920200,0.17,1.03,-0.19,33.08,49.07,-69.03
470,1715781920210,0.17,1.03,-0.19,33.08,49.07,-69.03
471,1715781920220,0.17,1.03,-0.19,33.08,49.07,-69.03
472,1715781920230,0.04035573122529645,0.9894861660079052,-0.20620553359683796,21.539604743083007,26.23679841897233,-64.20201581027668
473,1715781920240,0.01,0.98,-0.21,16.3,15.87,-62.01
474,1715781920250,0.01,0.9800000000000001,-0.21,16.3,15.87,-62.010000000000005
475,1715781920260,0.01,0.98,-0.21,16.3,15.87,-62.01
476,1715781920270,-0.06148148148148148,1.03559670781893,-0.21,11.01037037037037,2.5347325102880656,-45.14037037037037
477,1715781920280,-0.08,1.05,-0.21,9.64,-0.92,-40.77
478,1715781920290,-0.08,1.05,-0.21,9.64,-0.92,-40.77
479,1715781920300,-0.08,1.05,-0.21,9.64,-0.92,-40.77
480,1715781920310,-0.12791666666666668,1.0595833333333333,-0.19083333333333335,-1.7994318181818185,3.5927272727272723,-16.870795454545455
481,1715781920320,-0.13,1.06,-0.19,-4.15,4.52,-11.96
482,1715781920330,-0.13,1.06,-0.19,-4.15,4.52,-11.96
483,1715781920340,-0.1051908396946565,1.052557251908397,-0.17759541984732824,-5.134923664122137,1.7190458015267174,-4.358473282442748
484,1715781920350,-0.03,1.03,-0.14,-8.12,-6.77,18.68
485,1715781920360,-0.029999999999999995,1.03,-0.14,-8.12,-6.77,18.68
486,1715781920370,-0.03,1.03,-0.14,-8.12,-6.77,18.68
487,1715781920380,0.006088888888888889,1.009377777777778,-0.11937777777777779,-7.792311111111111,-3.4841333333333333,26.293155555555554
488,1715781920390,0.04,0.99,-0.1,-7.39,0.55,35.64
489,1715781920400,0.04,0.9900000000000001,-0.1,-7.39,0.55,35.64
490,1715781920410,0.053629032258064514,0.99,-0.10681451612903227,-6.4967741935483865,2.611290322580645,39.066895161290326
491,1715781920420,0.06,0.9899999999999999,-0.11,-4.27,7.75,47.61
492,1715781920430,0.06,0.99,-0.11,-4.27,7.75,47.61
493,1715781920440,0.06,0.99,-0.11,-4.27,7.75,47.61
494,1715781920450,0.08595505617977528,0.9553932584269663,-0.12730337078651685,-7.613370786516855,7.202434456928839,59.405205992509366
495,1715781920460,0.09,0.95,-0.13,-9.46,6.9,65.92
496,1715781920470,0.09,0.95,-0.13,-9.46,6.9,65.92
497,1715781920480,0.09,0.95,-0.13,-9.46,6.9,65.92
498,1715781920490,0.16658914728682173,0.8925581395348837,-0.11085271317829458,-11.95279069767442,4.962906976744186,70.02023255813954
499,1715781920500,0.17,0.89,-0.11,-17.4,0.73,78.98
500,1715781920510,0.17,0.8900000000000001,-0.11000000000000001,-17.4,0.73,78.98
501,1715781920520,0.18687499999999999,0.8755357142857143,-0.10276785714285715,-18.037499999999998,0.17419642857142856,80.19741071428572
502,1715781920530,0.24,0.83,-0.07999999999999999,-22.16,-3.42,88.07
503,1715781920540,0.24,0.83,-0.07999999999999999,-22.16,-3.42,88.07
504,1715781920550,0.24,0.83,-0.08,-22.16,-3.42,88.07
505,1715781920560,0.27057471264367816,0.8037931034482758,-0.07563218390804599,-20.32544061302682,-1.0671264367816091,92.96329501915709
506,1715781920570,0.31,0.77,-0.07,-16.78,3.48,102.42
507,1715781920580,0.31,0.77,-0.07,-16.78,3.48,102.42
508,1715781920590,0.31,0.77,-0.07,-16.78,3.48,102.42
509,1715781920600,0.38516393442622954,0.743155737704918,-0.0646311475409836,-20.558852459016393,-1.8334426229508194,105.27081967213114
510,1715781920610,0.45,0.72,-0.05999999999999999,-29.24,-14.04,111.82
511,1715781920620,0.45,0.72,-0.06,-29.24,-14.04,111.82
512,1715781920630,0.45,0.7199999999999999,-0.06,-29.24,-14.04,111.82
513,1715781920640,0.5431645569620253,0.6423628691983123,0.009873417721518988,-19.15772151898734,-15.327341772151899,111.1592405063291
514,1715781920650,0.57,0.62,0.03,-11.54,-16.3,110.66
515,1715781920660,0.57,0.62,0.03,-11.54,-16.3,110.66
516,1715781920670,0.57,0.62,0.03,-11.54,-16.3,110.66
517,1715781920680,0.6406204379562044,0.62,-0.048467153284671535,-20.316642335766424,-6.5542700729927015,118.69306569343067
518,1715781920690,0.66,0.62,-0.07,-25.94,-0.31,123.84
519,1715781920700,0.66,0.62,-0.07,-25.94,-0.31,123.84
520,1715781920710,0.66,0.62,-0.07,-25.94,-0.31,123.84
521,1715781920720,0.8854296875,0.386796875,0.069921875,-1.7879296875000004,-4.5776171875,116.9605078125
522,1715781920730,0.95,0.32,0.11,5.13,-5.8,114.99
523,1715781920740,0.95,0.32,0.11,5.13,-5.8,114.99
524,1715781920750,0.94,0.3642857142857143,0.06999999999999999,5.13,-5.8,114.99
525,1715781920760,0.88,0.63,-0.17,3.5376579925650558,41.80832713754646,128.1695539033457
526,1715781920770,0.88,0.63,-0.17,3.36,47.12,129.64
527,1715781920780,0.88,0.63,-0.17,3.36,47.12,129.64
528,1715781920790,0.9176470588235294,0.5358823529411765,-0.0871764705882353,1.6134901960784314,28.310745098039217,117.63498039215686
529,1715781920800,0.98,0.38,0.05,-2.5,-15.99,89.36
530,1715781920810,0.98,0.38,0.05,-2.5,-15.99,89.36
531,1715781920820,0.98,0.38,0.05,-2.5,-15.99,89.36
532,1715781920830,1.0359139784946236,0.35763440860215057,0.016451612903225808,5.608853046594982,21.234659498207886,98.21541218637992
533,1715781920840,1.08,0.34,-0.01,14.77,63.29,108.22
534,1715781920850,1.08,0.34,-0.01,14.77,63.29,108.22
535,1715781920860,1.08,0.34,-0.01,14.77,63.28999999999999,108.22
536,1715781920870,0.8079039301310045,0.4102183406113537,-0.045109170305676856,-9.291179039301309,28.809781659388644,80.71157205240175
537,1715781920880,0.77,0.42,-0.05,-16.36,18.68,72.63
538,1715781920890,0.77,0.42,-0.05,-16.36,18.68,72.63
539,1715781920900,0.77,0.42,-0.05,-16.36,18.68,72.63
540,1715781920910,0.9486776859504132,0.28793388429752065,0.035454545454545454,-5.266446280991736,30.15421487603306,89.32471074380166
541,1715781920920,1.0,0.25,0.06,-2.08,33.45,94.12
542,1715781920930,1.0,0.25,0.05999999999999999,-2.08,33.45,94.12000000000002
543,1715781920940,,,,,,
544,1715781920950,,,,,,
545,1715781920960,0.7156862745098039,0.3480392156862745,-0.08705882352941176,-16.913333333333334,23.21470588235294,85.25725490196078
546,1715781920970,0.71,0.35,-0.09,-17.21,23.01,85.08
547,1715781920980,0.8032773109243698,0.27436974789915963,-0.03453781512605041,-17.559579831932773,18.36294117647059,87.94218487394957
548,1715781920990,1.08,0.05,0.13,-19.29,-4.64,102.11
549,1715781921000,1.08,0.05,0.13,-19.29,-4.64,102.11
550,1715781921010,1.08,0.05000000000000001,0.13,-19.29,-4.64,102.11
551,1715781921020,1.011764705882353,0.07588235294117647,0.10176470588235294,-19.29,-4.64,102.11
552,1715781921030,0.79,0.16,0.01,-7.370912547528518,33.634980988593156,99.80916349809887
553,1715781921040,0.79,0.16,0.01,-6.65,35.95,99.67
554,1715781921050,0.79,0.16,0.01,-6.65,35.95,99.67
555,1715781921060,0.8582879377431907,0.05494163424124514,0.0467704280155642,-14.755836575875486,12.882684824902725,101.54120622568094
556,1715781921070,0.92,-0.04,0.08,-26.49,-20.51,104.25
557,1715781921080,0.9200000000000002,-0.04000000000000001,0.08000000000000002,-26.49,-20.51,104.25
558,1715781921090,0.92,-0.04,0.08,-26.49,-20.51,104.25
559,1715781921100,0.9270588235294118,-0.0611764705882353,0.1011764705882353,-23.207918552036197,-11.45054298642534,106.74339366515838
560,1715781921110,0.9299999999999999,-0.07,0.11,-9.22,27.16,117.37000000000002
561,1715781921120,0.93,-0.07,0.11,-9.22,27.16,117.37
562,1715781921130,0.93,-0.07,0.11,-9.22,27.16,117.37
563,1715781921140,0.9127615062761506,-0.08723849372384937,0.06690376569037657,-21.51133891213389,6.31092050209205,115.80234309623431
564,1715781921150,0.91,-0.09,0.06,-25.45,-0.37,115.3
565,1715781921160,0.91,-0.09,0.06,-25.45,-0.37,115.3
566,1715781921170,0.91,-0.09,0.06,-25.45,-0.37,115.3
567,1715781921180,1.034896265560166,-0.3041078838174274,0.13136929460580915,-13.52240663900415,24.680622406639003,123.73941908713694
568,1715781921190,1.05,-0.33,0.14,-12.08,27.71,124.76
569,1715781921200,1.05,-0.33,0.14,-12.08,27.71,124.76
570,1715781921210,1.0035269709543568,-0.28352697095435686,0.10016597510373444,-13.187053941908713,22.950622406639006,122.9944398340249
571,1715781921220,0.91,-0.19,0.02,-23.68,-22.16,106.26
572,1715781921230,0.91,-0.19,0.02,-23.68,-22.16,106.26
573,1715781921240,0.91,-0.19,0.02,-23.68,-22.16,106.26
574,1715781921250,0.9876170212765958,-0.3288936170212766,0.05268085106382979,-21.89344680851064,-19.940425531914894,107.04161702127661
575,1715781921260,1.1,-0.53,0.1,-10.56,-5.86,112.0
576,1715781921270,1.1,-0.53,0.1,-10.56,-5.86,112.0
577,1715781921280,1.1,-0.53,0.1,-10.56,-5.86,112.0
578,1715781921290,1.1,-0.4432773109243697,0.04037815126050421,-9.373025210084034,-12.060756302521009,111.91453781512605
579,1715781921300,1.1,-0.37,-0.01,-8.06,-18.92,111.82
580,1715781921310,1.1,-0.37,-0.01,-8.06,-18.92,111.82
581,1715781921320,1.1,-0.37,-0.010000000000000002,-8.06,-18.92,111.82
582,1715781921330,1.1308527131782946,-0.5319767441860465,0.05170542635658915,-16.310697674418606,12.44170542635659,105.35751937984497
583,1715781921340,1.14,-0.58,0.07,-22.64,36.5,100.4
584,1715781921350,1.14,-0.58,0.07,-22.64,36.5,100.4
585,1715781921360,1.14,-0.58,0.07,-22.64,36.5,100.4
586,1715781921370,1.1676377952755905,-0.5431496062992126,0.0515748031496063,-16.576692913385823,3.722283464566929,89.90330708661416
587,1715781921380,1.17,-0.54,0.05,-15.2,-3.72,87.52
588,1715781921390,1.17,-0.54,0.05,-15.199999999999998,-3.72,87.52
589,1715781921400,1.17118320610687,-0.5530152671755726,0.05473282442748092,-15.2,-3.72,87.52
590,1715781921410,1.18,-0.65,0.09,-16.66,15.5,58.29
591,1715781921420,1.18,-0.65,0.09,-16.66,15.5,58.29
592,1715781921430,1.18,-0.65,0.09,-16.66,15.5,58.29
593,1715781921440,1.1942978723404254,-0.630936170212766,0.09,-16.502212765957445,15.283999999999999,58.0831914893617
594,1715781921450,1.24,-0.57,0.09,-7.39,2.81,46.14
595,1715781921460,1.24,-0.57,0.09,-7.39,2.81,46.14
596,1715781921470,1.24,-0.57,0.09,-7.39,2.81,46.14
597,1715781921480,1.22,-0.566,0.076,-6.835702127659574,4.092297872340426,43.79004255319149
598,1715781921490,1.14,-0.55,0.02,-2.38,14.4,24.9
599,1715781921500,1.14,-0.55,0.02,-2.38,14.4,24.9
600,1715781921510,1.14,-0.55,0.02,-2.38,14.4,24.900000000000002
601,1715781921520,1.1865198237885461,-0.55,0.04907488986784141,-4.449162995594714,4.819823788546256,12.984140969162993
602,1715781921530,1.22,-0.55,0.07,-6.650000000000001,-5.37,0.31
603,1715781921540,1.22,-0.55,0.07,-6.65,-5.37,0.31
604,1715781921550,1.22,-0.55,0.07,-6.65,-5.37,0.31
605,1715781921560,1.213877551020408,-0.5520408163265306,0.05979591836734695,-5.674,-2.782,-3.83
606,1715781921570,1.19,-0.56,0.02,-1.77,7.57,-20.39
607,1715781921580,1.19,-0.56,0.02,-1.77,7.57,-20.39
608,1715781921590,1.19,-0.56,0.02,-1.77,7.57,-20.39
609,1715781921600,1.215595238095238,-0.5685317460317459,0.02,-3.4032142857142857,-0.3592857142857143,-39.32071428571428
610,1715781921610,1.22,-0.57,0.02,-4.46,-5.49,-51.57
611,1715781921620,1.22,-0.57,0.02,-4.46,-5.49,-51.57
612,1715781921630,1.2199606299212598,-0.5700393700787402,0.020078740157480318,-4.46,-5.49,-51.57
613,1715781921640,1.21,-0.58,0.04,-1.1625187969924813,2.129248120300752,-67.96755639097744
614,1715781921650,1.21,-0.58,0.04,-0.79,2.99,-69.82
615,1715781921660,1.21,-0.58,0.04,-0.79,2.99,-69.82
616,1715781921670,1.21,-0.58,0.04,-0.79,2.99,-69.82
617,1715781921680,1.23,-0.58,0.02,-1.4627272727272727,6.099090909090909,-87.46545454545455
618,1715781921690,1.23,-0.58,0.02,-1.53,6.41,-89.23
619,1715781921700,1.23,-0.58,0.02,-1.53,6.41,-89.23
620,1715781921710,1.23,-0.58,0.03280632411067194,-0.32754940711462455,6.460276679841898,-93.88478260869566
621,1715781921720,1.23,-0.58,0.05999999999999999,4.21,6.65,-111.45
622,1715781921730,1.23,-0.58,0.06,4.21,6.65,-111.45
623,1715781921740,1.23,-0.58,0.06,4.21,6.65,-111.45
624,1715781921750,1.2067578125,-0.5428125,0.0553515625,5.02640625,3.7740234375000004,-117.8587890625
625,1715781921760,1.18,-0.5,0.05,6.41,-1.1,-128.72
626,1715781921770,1.18,-0.5,0.05,6.41,-1.1,-128.72
627,1715781921780,1.18,-0.5,0.05,6.41,-1.1,-128.72
628,1715781921790,1.173531914893617,-0.487063829787234,0.05646808510638298,7.470595744680851,3.765021276595744,-135.13106382978722
629,1715781921800,1.17,-0.48,0.06,8.42,8.12,-140.87
630,1715781921810,1.17,-0.48,0.06,8.42,8.12,-140.87
631,1715781921820,1.17,-0.48,0.06,8.42,8.12,-140.87
632,1715781921830,1.0966666666666667,-0.3985185185185185,0.0437037037037037,9.915000000000001,5.159999999999999,-147.43
633,1715781921840,1.08,-0.38,0.04,11.41,2.2,-153.99
634,1715781921850,1.08,-0.38,0.04,11.41,2.2,-153.99
635,1715781921860,1.08,-0.38,0.04,11.41,2.2,-153.99
636,1715781921870,1.0943946188340807,-0.3656053811659193,0.05439461883408072,12.201704035874439,1.7297757847533632,-154.4890134529148
637,1715781921880,1.11,-0.35,0.07,13.06,1.22,-155.02999999999997
638,1715781921890,1.11,-0.35,0.07,13.06,1.22,-155.03
639,1715781921900,1.096947368421053,-0.3347719298245614,0.06673684210526316,13.123157894736844,1.3003508771929824,-155.1617543859649
640,1715781921910,0.9899999999999999,-0.21,0.04,16.66,5.8,-162.54
641,1715781921920,0.99,-0.21,0.04,16.66,5.8,-162.54
642,1715781921930,0.99,-0.21,0.04,16.66,5.8,-162.54
643,1715781921940,0.9709923664122138,-0.1783206106870229,0.03683206106870229,16.66,5.8,-162.54
644,1715781921950,0.93,-0.11,0.03,14.405901639344263,-1.909016393442623,-159.67278688524593
645,1715781921960,0.93,-0.11,0.029999999999999995,14.16,-2.75,-159.36
646,1715781921970,0.93,-0.11,0.03,14.16,-2.75,-159.36
647,1715781921980,0.9332156862745098,-0.07784313725490197,0.04929411764705882,15.729176470588236,2.0591764705882354,-160.98952941176472
648,1715781921990,0.94,-0.01,0.09,19.1,12.39,-164.49
649,1715781922000,0.94,-0.01,0.09,19.1,12.39,-164.49
650,1715781922010,0.94,-0.01,0.09,19.1,12.39,-164.49
651,1715781922020,0.8389830508474576,0.06576271186440678,0.04580508474576271,19.042033898305085,12.742627118644068,-161.04101694915255
652,1715781922030,0.78,0.11,0.02,18.98,13.12,-157.35
653,1715781922040,0.78,0.11,0.02,18.98,13.12,-157.35
654,1715781922050,0.78,0.11,0.02,18.98,13.12,-157.35
655,1715781922060,0.8133333333333334,0.15666666666666668,0.06,17.93272030651341,-15.275862068965518,-158.23819923371647
656,1715781922070,0.83,0.18,0.08,17.4,-29.72,-158.69
657,1715781922080,0.83,0.18,0.08,17.4,-29.72,-158.69
658,1715781922090,0.83,0.18,0.08,17.4,-29.72,-158.69
659,1715781922100,0.7700796812749003,0.2773705179282869,0.042549800796812746,26.904860557768924,17.13768924302789,-145.75470119521913
660,1715781922110,0.75,0.31,0.03,30.09,32.84,-141.42
661,1715781922120,0.75,0.31,0.03,30.09,32.84,-141.42
662,1715781922130,0.74375,0.315,0.028125,30.09,32.84,-141.42
663,1715781922140,0.65,0.39,0.0,23.23335766423358,0.9449635036496356,-138.7738686131387
664,1715781922150,0.65,0.39,0.0,21.85,-5.49,-138.24
665,1715781922160,0.65,0.39,0.0,21.85,-5.49,-138.24
666,1715781922170,0.6394,0.41544,0.00424,22.4844,-5.43904,-137.53592
667,1715781922180,0.6,0.51,0.02,27.95,-5.0,-131.47
668,1715781922190,0.6,0.51,0.02,27.95,-5.0,-131.47
669,1715781922200,0.6,0.51,0.02,27.95,-5.0,-131.47
670,1715781922210,0.6084189723320158,0.5212252964426878,0.017193675889328065,27.97711462450593,-4.081422924901186,-130.8214624505929
671,1715781922220,0.63,0.55,0.01,28.44,11.6,-119.75
672,1715781922230,0.63,0.55,0.01,28.44,11.6,-119.75
673,1715781922240,0.63,0.55,0.01,28.44,11.6,-119.75
674,1715781922250,0.5714448669201521,0.593916349809886,-0.016349809885931557,28.159695817490494,6.924410646387832,-118.49874524714829
675,1715781922260,0.43,0.7,-0.08,27.47,-4.58,-115.42
676,1715781922270,0.43,0.7,-0.08,27.47,-4.58,-115.42
677,1715781922280,0.43,0.7,-0.08,27.47,-4.58,-115.42
678,1715781922290,0.5106400000000001,0.7067199999999999,-0.07328,22.2732,-14.69584,-112.27504
679,1715781922300,0.55,0.71,-0.07,15.87,-27.16,-108.4
680,1715781922310,0.55,0.71,-0.07,15.87,-27.16,-108.4
681,1715781922320,0.55,0.71,-0.07,15.87,-27.16,-108.4
682,1715781922330,0.44473684210526315,0.758582995951417,-0.08619433198380566,14.442307692307692,-26.99076923076923,-106.07076923076923
683,1715781922340,0.42,0.77,-0.09,11.23,-26.61,-100.83
684,1715781922350,0.42,0.77,-0.09,11.23,-26.61,-100.83
685,1715781922360,0.42,0.77,-0.09,11.23,-26.61,-100.83
686,1715781922370,0.3825112107623318,0.8356053811659193,-0.11811659192825112,4.80847533632287,-69.23286995515694,-97.64331838565022
687,1715781922380,0.38,0.84,-0.12,3.23,-79.71,-96.86
688,1715781922390,0.38,0.84,-0.12,3.23,-79.71,-96.86
689,1715781922400,0.38,0.84,-0.11999999999999998,3.23,-79.71,-96.86
690,1715781922410,0.395,0.8624999999999999,-0.10500000000000001,-10.637500000000001,-99.02999999999999,-104.1875
691,1715781922420,0.4,0.87,-0.1,-15.259999999999998,-105.47,-106.63
692,1715781922430,0.4000000000000001,0.8699999999999999,-0.10000000000000002,-15.26,-105.47,-106.63000000000001
693,1715781922440,0.39236641221374047,0.8661832061068703,-0.08282442748091604,-13.75793893129771,-98.60652671755724,-106.13545801526716
694,1715781922450,0.36,0.85,-0.01,3.48,-19.84,-100.46
695,1715781922460,0.36,0.85,-0.01,3.48,-19.84,-100.46
696,1715781922470,0.36,0.85,-0.01,3.48,-19.84,-100.46
697,1715781922480,0.2703829787234043,0.874127659574468,-0.07893617021276596,9.682085106382978,1.167531914893616,-96.28565957446807
698,1715781922490,0.1,0.92,-0.21,29.05,66.77,-83.25
699,1715781922500,0.1,0.92,-0.21,29.05,66.77,-83.25
700,1715781922510,0.1,0.92,-0.21,29.05,66.77,-83.25
701,1715781922520,-0.021570881226053638,1.0095785440613028,-0.2675862068965517,25.37551724137931,60.634482758620685,-79.04482758620689
702,1715781922530,-0.09,1.06,-0.3,17.21,47.0,-69.7
703,1715781922540,-0.09,1.06,-0.3,17.21,47.0,-69.7
704,1715781922550,-0.09,1.06,-0.3,17.21,47.0,-69.7
705,1715781922560,-0.17931297709923663,1.052557251908397,-0.29255725190839693,5.53912213740458,34.8574427480916,-56.70969465648855
706,1715781922570,-0.21,1.05,-0.29,-1.1,27.95,-49.32
707,1715781922580,-0.21,1.05,-0.29,-1.1,27.95,-49.32
708,1715781922590,-0.2151985559566787,1.0517328519855598,-0.2848014440433213,-1.1,27.95,-49.32
709,1715781922600,-0.27,1.07,-0.23,-13.24,33.75,-15.08
710,1715781922610,-0.27,1.07,-0.23,-13.24,33.75,-15.08
711,1715781922620,-0.27,1.07,-0.23,-13.24,33.75,-15.08
712,1715781922630,-0.26964143426294823,1.0698804780876494,-0.229601593625498,-13.278446215139441,33.6503187250996,-14.933346613545817
713,1715781922640,-0.18,1.04,-0.13,-22.89,8.73,21.73
714,1715781922650,-0.18,1.04,-0.13,-22.89,8.73,21.73
715,1715781922660,-0.18,1.04,-0.13,-22.89,8.73,21.73
716,1715781922670,-0.144390243902439,1.0251626016260162,-0.10329268292682926,-22.696585365853657,6.988211382113822,24.503333333333334
717,1715781922680,-0.06,0.99,-0.04,-21.06,-7.75,47.97
718,1715781922690,-0.05999999999999999,0.9900000000000001,-0.04,-21.06,-7.75,47.97
719,1715781922700,-0.06,0.99,-0.04000000000000001,-21.059999999999995,-7.75,47.97
720,1715781922710,-0.06,0.99,-0.04,-21.06,-7.75,47.97
721,1715781922720,0.03260700389105059,0.9622178988326848,-0.021478599221789886,-9.021089494163425,1.6866536964980543,67.69529182879377
722,1715781922730,0.04,0.96,-0.02,-8.06,2.44,69.27
723,1715781922740,0.04,0.96,-0.02,-8.06,2.44,69.27
724,1715781922750,0.09466942148760331,0.9287603305785125,-0.0434297520661157,-1.068512396694215,6.636239669421488,79.79764462809916
725,1715781922760,0.11,0.92,-0.05,2.32,8.67,84.9
726,1715781922770,0.11,0.92,-0.05,2.32,8.67,84.9
727,1715781922780,0.11,0.92,-0.05,2.32,8.67,84.9
728,1715781922790,0.1686046511627907,0.8613953488372094,-0.05976744186046511,4.2300775193798446,21.01604651162791,93.32170542635659
729,1715781922800,0.17,0.86,-0.06,4.52,22.89,94.6
730,1715781922810,0.17,0.86,-0.060000000000000005,4.52,22.89,94.6
731,1715781922820,0.17,0.86,-0.06,4.52,22.89,94.6
732,1715781922830,0.17,0.86,-0.060000000000000005,4.52,22.89,94.6
733,1715781922840,0.17,0.86,-0.06,4.52,22.89,94.6
734,1715781922850,0.17,0.86,-0.06,4.52,22.89,94.6
735,1715781922860,0.17,0.86,-0.060000000000000005,4.52,22.89,94.6
736,1715781922870,0.27814814814814814,0.7774485596707819,-0.07275720164609054,3.1637860082304523,44.43098765432099,112.54765432098765
737,1715781922880,0.33999999999999997,0.73,-0.08,2.38,56.88,122.92
738,1715781922890,0.34,0.73,-0.08,2.38,56.88,122.92
739,1715781922900,0.4020647773279352,0.6945344129554655,-0.0888663967611336,-9.98097165991903,47.71481781376518,126.51125506072874
740,1715781922910,0.41,0.69,-0.09,-20.75,39.73,129.64
741,1715781922920,0.41,0.69,-0.09,-20.75,39.73,129.64
742,1715781922930,0.41,0.69,-0.09,-20.75,39.73,129.64
743,1715781922940,0.5345147679324895,0.5175949367088608,0.005780590717299579,-12.04354430379747,31.665274261603376,137.64725738396626
744,1715781922950,0.54,0.51,0.01,-11.66,31.310000000000002,138.0
745,1715781922960,0.54,0.51,0.01,-11.660000000000002,31.31,138.0
746,1715781922970,0.5597752808988764,0.5082022471910113,0.006404494382022472,-11.66,31.310000000000002,138.0
747,1715781922980,0.65,0.5,-0.01,-28.819800000000004,3.135,131.8946
748,1715781922990,0.65,0.5,-0.01,-29.17,2.56,131.77
749,1715781923000,0.65,0.5,-0.01,-29.17,2.56,131.77
750,1715781923010,0.6879399141630901,0.45536480686695274,0.019012875536480685,-22.57738197424893,4.753819742489271,133.32330472103004
751,1715781923020,0.82,0.3,0.12,0.37,12.39,138.73
752,1715781923030,0.82,0.3,0.12,0.37,12.39,138.73
753,1715781923040,0.82,0.3,0.12,0.37,12.39,138.73
754,1715781923050,0.8122846441947565,0.33471910112359554,0.05827715355805243,-0.31280898876404495,34.382621722846444,139.015468164794
755,1715781923060,0.8,0.39,-0.04,-1.4,69.4,139.47
756,1715781923070,0.8,0.39,-0.04,-1.4,69.4,139.47
757,1715781923080,0.8,0.39,-0.04,-1.4,69.4,139.47
758,1715781923090,0.76625,0.228,0.047749999999999994,-12.240125,3.200458333333336,135.32004166666667
759,1715781923100,0.75,0.15,0.09,-20.39,-46.57,132.2
760,1715781923110,0.75,0.15,0.09,-20.39,-46.57,132.2
761,1715781923120,0.75,0.15,0.09,-20.39,-46.57,132.2
762,1715781923130,1.1898340248962656,0.03564315352697096,0.11639004149377594,3.11344398340249,4.3109958506224055,142.638132780083
763,1715781923140,1.25,0.02,0.11999999999999998,9.58,18.31,145.51
764,1715781923150,1.25,0.02,0.12,9.58,18.31,145.51
765,1715781923160,0.8214285714285714,0.1742857142857143,-0.05142857142857143,-3.0996240601503757,19.32255639097744,132.92105263157896
766,1715781923170,0.75,0.2,-0.08,-7.2,19.65,128.85
767,1715781923180,0.75,0.20000000000000004,-0.08,-7.2,19.649999999999995,128.85
768,1715781923190,0.757915057915058,0.1947876447876448,-0.07613899613899613,-7.2,19.65,128.85
769,1715781923200,1.16,-0.07,0.12,-6.433802816901408,-22.878450704225354,136.05225352112677
770,1715781923210,1.16,-0.07,0.12,-6.35,-27.53,136.84
771,1715781923220,1.16,-0.07,0.12,-6.35,-27.53,136.84
772,1715781923230,1.0960902255639098,-0.04699248120300752,0.07398496240601504,-5.864473684210526,-23.750676691729325,136.5027819548872
773,1715781923240,0.91,0.02,-0.06,2.26,39.49,130.86
774,1715781923250,0.91,0.02,-0.06,2.26,39.49,130.86
775,1715781923260,0.91,0.02,-0.06,2.26,39.49,130.86
776,1715781923270,0.9605394190871369,-0.04016597510373444,-0.0383402489626556,-2.07045643153527,28.321037344398345,130.5597510373444
777,1715781923280,1.12,-0.23,0.03,-26.73,-35.28,128.85
778,1715781923290,1.12,-0.23,0.03,-26.73,-35.28,128.85
779,1715781923300,1.12,-0.23,0.03,-26.73,-35.28,128.85
780,1715781923310,1.137300380228137,-0.2161596958174905,0.03,-23.409391634980988,-29.346768060836503,127.86201520912547
781,1715781923320,1.17,-0.19,0.03,4.46,20.45,119.57
782,1715781923330,1.17,-0.19,0.03,4.46,20.45,119.57
783,1715781923340,1.17,-0.19,0.03,4.46,20.45,119.57
784,1715781923350,1.121304347826087,-0.23869565217391306,0.05434782608695653,-6.387707509881422,18.15094861660079,114.26913043478261
785,1715781923360,1.09,-0.27,0.07,-17.15,15.87,109.01
786,1715781923370,1.09,-0.27,0.07,-17.15,15.870000000000001,109.01
787,1715781923380,1.09,-0.27,0.07,-17.15,15.87,109.01
788,1715781923390,1.0170454545454546,-0.2862121212121212,0.029469696969696972,-4.009393939393939,46.495909090909095,114.82348484848485
789,1715781923400,1.0,-0.29,0.02,6.29,70.5,119.38
790,1715781923410,1.0,-0.29,0.02,6.29,70.5,119.38
791,1715781923420,1.0,-0.2899999999999999,0.02,6.29,70.5,119.38
792,1715781923430,1.0615891472868217,-0.377984496124031,0.0112015503875969,-22.783682170542637,3.498488372093022,103.26755813953488
793,1715781923440,1.07,-0.39,0.01,-29.6,-12.21,99.49
794,1715781923450,1.07,-0.39,0.01,-29.6,-12.21,99.49
795,1715781923460,1.07,-0.39,0.01,-29.6,-12.21,99.49
796,1715781923470,1.1382995951417003,-0.48757085020242913,0.09781376518218624,-9.295506072874494,19.773724696356275,97.16781376518219
797,1715781923480,1.14,-0.48999999999999994,0.1,-8.79,20.57,97.11000000000001
