id,timestamp,acc_x,acc_y,acc_z,gyro_x,gyro_y,gyro_z
1.0,2024-05-10 14:37:35.667941120,1.23,-0.92,0.23,-76.48,-59.63,59.02
1.0,2024-05-10 14:37:35.674852608,1.0838812785388128,-0.554703196347032,-0.26315068493150684,-30.85662100456621,-157.04881278538815,49.802100456621005
1.0,2024-05-10 14:37:35.685055232,1.07,-0.52,-0.31,-19.71,-180.85,47.55
1.0,2024-05-10 14:37:35.694710016,1.07,-0.52,-0.30999999999999994,-19.71,-180.85,47.54999999999999
1.0,2024-05-10 14:37:35.704694272,1.07,-0.52,-0.31,-19.71,-180.85,47.55
1.0,2024-05-10 14:37:35.714925056,1.5394560669456068,-0.5292050209205021,0.021380753138075314,-7.4130125523012556,-63.51548117154811,20.866820083682008
1.0,2024-05-10 14:37:35.724849664,1.58,-0.53,0.05,-6.29,-52.8,18.43
1.0,2024-05-10 14:37:35.734861056,1.58,-0.53,0.05,-6.29,-52.8,18.43
1.0,2024-05-10 14:37:35.744897792,1.4863779527559056,-0.49118110236220475,0.02488188976377953,-6.466377952755906,-34.11220472440945,17.320748031496063
1.0,2024-05-10 14:37:35.754981120,1.17,-0.36,-0.06,-7.57,82.82,10.38
1.0,2024-05-10 14:37:35.764835328,1.17,-0.36,-0.06,-7.57,82.82,10.38
1.0,2024-05-10 14:37:35.774933504,1.17,-0.36,-0.06,-7.57,82.82,10.38
1.0,2024-05-10 14:37:35.785235712,1.0155696202531646,-0.3342616033755274,-0.03426160337552742,-10.452700421940929,85.39552742616033,9.245822784810127
1.0,2024-05-10 14:37:35.795114240,0.87,-0.31,-0.01,-16.11,90.45,7.02
1.0,2024-05-10 14:37:35.805197568,0.87,-0.31,-0.01,-16.11,90.45,7.02
1.0,2024-05-10 14:37:35.815571456,0.87,-0.31,-0.01,-16.11,90.45,7.02
1.0,2024-05-10 14:37:35.825070592,0.8041772151898734,-0.29025316455696204,-0.01658227848101266,-10.703755274261603,46.6437552742616,4.611223628691983
1.0,2024-05-10 14:37:35.834802944,0.77,-0.28,-0.019999999999999997,-6.1,9.34,2.5599999999999996
1.0,2024-05-10 14:37:35.844534784,0.77,-0.28,-0.02,-6.1,9.34,2.56
1.0,2024-05-10 14:37:35.855335936,0.77,-0.28,-0.02,-6.1,9.34,2.56
1.0,2024-05-10 14:37:35.864969216,0.9734597156398105,-0.24985781990521327,0.07796208530805687,-6.955924170616113,-4.268530805687203,2.321137440758294
1.0,2024-05-10 14:37:35.874712832,1.04,-0.24,0.11,-7.39,-11.17,2.2
1.0,2024-05-10 14:37:35.884825856,1.04,-0.24,0.11,-7.39,-11.17,2.2
1.0,2024-05-10 14:37:35.895049728,1.04,-0.24,0.11,-7.39,-11.17,2.2
1.0,2024-05-10 14:37:35.905280512,1.0548305084745762,-0.31415254237288137,-0.03830508474576271,2.600254237288136,-4.372203389830508,24.067966101694914
1.0,2024-05-10 14:37:35.914780928,1.06,-0.34,-0.09,6.16,-1.95,31.86
1.0,2024-05-10 14:37:35.924684544,1.06,-0.34,-0.09,6.16,-1.95,31.859999999999996
1.0,2024-05-10 14:37:35.935192576,1.1043346007604562,-0.3581368821292776,-0.07387832699619772,3.570380228136882,-5.7489733840304185,28.66570342205323
1.0,2024-05-10 14:37:35.945372160,1.28,-0.43,-0.01,-15.81,-34.18,4.76
1.0,2024-05-10 14:37:35.955251968,1.28,-0.43,-0.01,-15.81,-34.18,4.76
1.0,2024-05-10 14:37:35.965433088,1.28,-0.43,-0.01,-15.81,-34.18,4.76
1.0,2024-05-10 14:37:35.975311360,1.28,-0.43,-0.01,-15.81,-34.18,4.76
1.0,2024-05-10 14:37:35.984650752,1.2799999999999998,-0.43000000000000005,-0.009999999999999998,-15.81,-34.18,4.76
1.0,2024-05-10 14:37:35.994712064,1.28,-0.43,-0.01,-15.81,-34.18,4.76
1.0,2024-05-10 14:37:36.005410048,1.28,-0.43,-0.01,-15.81,-34.18,4.76
1.0,2024-05-10 14:37:36.015183616,1.28,-0.43,-0.01,-15.81,-34.18,4.76
1.0,2024-05-10 14:37:36.025178368,1.28,-0.43,-0.01,-15.81,-34.18,4.76
1.0,2024-05-10 14:37:36.035514112,1.28,-0.43,-0.01,-15.81,-34.18,4.76
1.0,2024-05-10 14:37:36.045214720,1.28,-0.43,-0.01,-15.81,-34.18,4.76
1.0,2024-05-10 14:37:36.055131904,1.1586425339366515,-0.7829411764705883,-0.026289592760180995,21.407194570135747,26.339457013574663,51.34733031674208
1.0,2024-05-10 14:37:36.064744704,1.13,-0.86,-0.03,29.66,40.1,61.83
1.0,2024-05-10 14:37:36.074855424,1.0521333333333334,-1.0222222222222221,-0.13382222222222223,33.59755555555556,6.427777777777778,62.300444444444445
1.0,2024-05-10 14:37:36.084559616,0.9898775510204082,-1.076857142857143,-0.17816326530612245,35.77,-12.15,62.56
1.0,2024-05-10 14:37:36.094891520,0.84,-0.83,-0.09,76.79135458167332,0.8073705179282867,46.4185657370518
1.0,2024-05-10 14:37:36.105071360,0.84,-0.83,-0.09,82.15,2.5,44.31
1.0,2024-05-10 14:37:36.114937344,0.84,-0.8300000000000001,-0.09,82.15,2.5,44.31
1.0,2024-05-10 14:37:36.124636160,0.8942222222222221,-0.8516888888888888,-0.20386666666666667,64.8168,-9.91,25.689333333333334
1.0,2024-05-10 14:37:36.134830592,0.94,-0.87,-0.3,5.68,-52.25,-37.84
1.0,2024-05-10 14:37:36.145164288,0.94,-0.87,-0.3,5.68,-52.25,-37.84
1.0,2024-05-10 14:37:36.155009024,0.94,-0.87,-0.3,5.68,-52.25,-37.84
1.0,2024-05-10 14:37:36.164980992,0.94,-0.6438842975206611,-0.24347107438016527,25.274214876033056,-37.13347107438016,-62.80280991735537
1.0,2024-05-10 14:37:36.175065344,0.94,-0.51,-0.21,39.55,-26.12,-80.99
1.0,2024-05-10 14:37:36.185052672,0.94,-0.51,-0.21,39.55,-26.12,-80.99
1.0,2024-05-10 14:37:36.195251200,0.94,-0.51,-0.21,39.55,-26.12,-80.99
1.0,2024-05-10 14:37:36.205087232,0.9802083333333333,-0.5421666666666667,-0.10545833333333333,40.269333333333336,4.9911666666666665,-103.32391666666668
1.0,2024-05-10 14:37:36.215214080,0.99,-0.55,-0.08,40.59,18.860000000000003,-113.28
1.0,2024-05-10 14:37:36.225022208,0.9900000000000001,-0.55,-0.08,40.59,18.86,-113.28
1.0,2024-05-10 14:37:36.235169792,0.99,-0.55,-0.08,40.59,18.86,-113.28
1.0,2024-05-10 14:37:36.245072640,0.8259683794466404,-0.3531620553359684,-0.06031620553359684,43.12833992094862,39.747351778656125,-121.28039525691699
1.0,2024-05-10 14:37:36.255131904,0.74,-0.25,-0.05,45.53,59.51,-128.85
1.0,2024-05-10 14:37:36.265389312,0.741044776119403,-0.2498507462686567,-0.049253731343283584,45.53,59.51,-128.85
1.0,2024-05-10 14:37:36.275490048,0.81,-0.24,0.0,63.57090163934426,-30.422622950819672,-168.8872950819672
1.0,2024-05-10 14:37:36.285183488,0.81,-0.24,0.0,66.1,-43.03,-174.5
1.0,2024-05-10 14:37:36.294981120,0.81,-0.24,0.0,66.1,-43.03,-174.5
1.0,2024-05-10 14:37:36.305163008,0.8293388429752067,-0.22227272727272726,-0.004834710743801653,74.4685950413223,-36.99198347107438,-174.86280991735538
1.0,2024-05-10 14:37:36.315236608,0.93,-0.13,-0.029999999999999995,167.36,30.030000000000005,-178.89
1.0,2024-05-10 14:37:36.324867840,0.93,-0.13,-0.03,167.36,30.03,-178.89
1.0,2024-05-10 14:37:36.335106816,0.93,-0.13,-0.03,167.36,30.03,-178.89
1.0,2024-05-10 14:37:36.344925440,0.858786610878661,-0.04330543933054394,-0.12288702928870293,171.1487447698745,29.318828451882844,-182.46702928870292
1.0,2024-05-10 14:37:36.354869760,0.7,0.15,-0.33,206.73,22.64,-216.06
1.0,2024-05-10 14:37:36.365118208,0.7,0.15,-0.33,206.73,22.64,-216.06
1.0,2024-05-10 14:37:36.375279872,0.7,0.15,-0.33,206.73,22.64,-216.06
1.0,2024-05-10 14:37:36.385174528,0.7425726141078839,0.17365145228215767,-0.23066390041493778,208.7570539419087,-3.337593360995849,-226.33651452282157
1.0,2024-05-10 14:37:36.394996992,0.79,0.2,-0.12,212.04,-45.41,-242.97999999999996
1.0,2024-05-10 14:37:36.405095168,0.79,0.2,-0.12,212.04,-45.41,-242.98
1.0,2024-05-10 14:37:36.414930176,0.79,0.2,-0.12,212.04,-45.41,-242.98
1.0,2024-05-10 14:37:36.424731648,0.6181481481481482,0.6503703703703704,-0.4340740740740741,196.76588477366255,-26.756872427983534,-209.7138683127572
1.0,2024-05-10 14:37:36.435286784,0.5,0.96,-0.65,180.85,-7.32,-175.05
1.0,2024-05-10 14:37:36.445149696,0.5,0.96,-0.65,180.85,-7.32,-175.05
1.0,2024-05-10 14:37:36.455294464,0.5,0.96,-0.65,180.85,-7.32,-175.05
1.0,2024-05-10 14:37:36.465081600,0.2919626168224299,1.145747663551402,-0.7094392523364486,107.86060747663551,-32.458878504672896,-153.35317757009346
1.0,2024-05-10 14:37:36.474928384,0.22,1.2100000000000002,-0.7300000000000001,57.86,-49.68,-138.49
1.0,2024-05-10 14:37:36.484709376,0.22,1.21,-0.73,57.86,-49.68,-138.49
1.0,2024-05-10 14:37:36.494961152,0.22,1.21,-0.73,57.86,-49.68,-138.49
1.0,2024-05-10 14:37:36.505296896,0.15345971563981045,1.3282938388625594,-0.6043127962085308,8.855023696682466,-70.03568720379147,-108.58454976303318
1.0,2024-05-10 14:37:36.514937088,0.13,1.37,-0.56,-8.85,-77.39,-97.78
1.0,2024-05-10 14:37:36.525232384,0.13,1.37,-0.56,-8.85,-77.39,-97.78
1.0,2024-05-10 14:37:36.534849536,0.13,1.37,-0.56,-8.85,-77.39,-97.78
1.0,2024-05-10 14:37:36.544836864,0.21702290076335878,1.1698473282442747,-0.28152671755725195,-13.719236641221375,-76.91347328244275,-99.20958015267176
1.0,2024-05-10 14:37:36.555223552,0.23,1.14,-0.24,-14.47,-76.84,-99.43
1.0,2024-05-10 14:37:36.564939264,0.23,1.14,-0.24000000000000002,-14.47,-76.84,-99.43
1.0,2024-05-10 14:37:36.575058432,0.1952755905511811,1.091771653543307,-0.2959448818897638,-2.459212598425198,-66.75062992125984,-81.55464566929135
1.0,2024-05-10 14:37:36.585191424,0.05,0.89,-0.53,47.79,-24.54,-6.77
1.0,2024-05-10 14:37:36.594988288,0.05,0.89,-0.53,47.79,-24.54,-6.77
1.0,2024-05-10 14:37:36.605041408,0.05,0.89,-0.53,47.79,-24.54,-6.7700000000000005
1.0,2024-05-10 14:37:36.614845440,0.24791666666666667,0.843125,-0.5560416666666667,24.937749999999998,-57.45625,6.974500000000001
1.0,2024-05-10 14:37:36.624931840,0.43,0.8,-0.58,-5.98,-101.99,25.570000000000004
1.0,2024-05-10 14:37:36.635140608,0.43,0.8,-0.58,-5.98,-101.99,25.57
1.0,2024-05-10 14:37:36.645358592,0.43,0.8,-0.58,-5.98,-101.99,25.57
1.0,2024-05-10 14:37:36.654886656,0.5444736842105262,0.7771052631578947,-0.526578947368421,-8.810175438596492,-84.42570175438595,16.147236842105265
1.0,2024-05-10 14:37:36.664791296,0.58,0.77,-0.51,-11.9,-65.25,5.86
1.0,2024-05-10 14:37:36.675147776,0.5800000000000001,0.77,-0.51,-11.9,-65.25,5.859999999999999
1.0,2024-05-10 14:37:36.685428480,0.58,0.7699999999999999,-0.51,-11.9,-65.25,5.86
1.0,2024-05-10 14:37:36.694928384,0.6392039800995024,0.7530845771144279,-0.3662189054726368,2.3831343283582087,-26.766716417910445,-28.19865671641791
1.0,2024-05-10 14:37:36.704799744,0.65,0.75,-0.34,7.63,-12.63,-40.71
1.0,2024-05-10 14:37:36.715026432,0.65,0.75,-0.34,7.630000000000001,-12.63,-40.709999999999994
1.0,2024-05-10 14:37:36.725129472,0.6286497890295359,0.7558227848101265,-0.36232067510548527,7.63,-12.630000000000003,-40.71
1.0,2024-05-10 14:37:36.735183616,0.42999999999999994,0.81,-0.57,22.00697368421053,31.651798245614035,-36.6459649122807
1.0,2024-05-10 14:37:36.744591104,0.43,0.81,-0.57,23.62,36.62,-36.19
1.0,2024-05-10 14:37:36.754639360,0.43,0.81,-0.57,23.62,36.62,-36.19
1.0,2024-05-10 14:37:36.764859648,0.4236440677966102,0.8195338983050848,-0.5710593220338982,23.48343220338983,36.663983050847456,-36.141906779661014
1.0,2024-05-10 14:37:36.774808064,0.37,0.9,-0.58,-8.61,47.0,-24.84
1.0,2024-05-10 14:37:36.784914432,0.37,0.9,-0.58,-8.61,47.0,-24.84
1.0,2024-05-10 14:37:36.794980352,0.37,0.9,-0.58,-8.61,47.0,-24.84
1.0,2024-05-10 14:37:36.805189888,0.3543891402714932,0.9312217194570136,-0.5706334841628959,-8.354389140271493,50.51393665158371,-25.083257918552036
1.0,2024-05-10 14:37:36.815050496,0.32,1.0,-0.55,-5.92,83.98,-27.4
1.0,2024-05-10 14:37:36.824749312,0.32,1.0,-0.55,-5.92,83.98,-27.4
1.0,2024-05-10 14:37:36.834929920,0.32,1.0,-0.55,-5.92,83.98,-27.4
1.0,2024-05-10 14:37:36.844649472,0.2727310924369748,1.0052521008403361,-0.5605042016806723,3.6976470588235286,104.85815126050419,-28.24873949579832
1.0,2024-05-10 14:37:36.854625024,0.23,1.01,-0.57,16.97,133.67,-29.42
1.0,2024-05-10 14:37:36.864755200,0.23,1.01,-0.57,16.97,133.67,-29.42
1.0,2024-05-10 14:37:36.874691584,0.23,1.01,-0.57,16.97,133.67,-29.42
1.0,2024-05-10 14:37:36.884526336,0.2807317073170732,1.1178048780487806,-0.6334146341463415,8.328048780487805,126.62743902439024,-11.973536585365855
1.0,2024-05-10 14:37:36.894904576,0.31,1.18,-0.67,0.49,120.24,3.85
1.0,2024-05-10 14:37:36.904908288,0.31,1.18,-0.67,0.49,120.24,3.85
1.0,2024-05-10 14:37:36.914621440,0.31,1.18,-0.67,0.49,120.24,3.85
1.0,2024-05-10 14:37:36.924935936,0.24768939393939393,0.9930681818181819,-0.6521969696969697,-49.47280303030303,94.66166666666665,31.18401515151515
1.0,2024-05-10 14:37:36.935083008,0.24,0.9699999999999999,-0.65,-63.54,87.45999999999998,38.88
1.0,2024-05-10 14:37:36.944430080,0.24,0.97,-0.65,-63.54,87.46,38.88
1.0,2024-05-10 14:37:36.955006208,0.24,0.97,-0.65,-63.54,87.46,38.88
1.0,2024-05-10 14:37:36.965164544,0.549433962264151,1.2697641509433961,-0.37924528301886795,-86.1333962264151,-22.552264150943397,62.77245283018868
1.0,2024-05-10 14:37:36.974865920,0.56,1.28,-0.37,-90.15,-42.11,67.02
1.0,2024-05-10 14:37:36.985151744,0.56,1.28,-0.37,-90.15000000000002,-42.11,67.02
1.0,2024-05-10 14:37:36.995194624,0.5502127659574468,1.1038297872340428,-0.1351063829787234,-102.59076595744682,47.724382978723405,40.66902127659574
1.0,2024-05-10 14:37:37.005146368,0.55,1.1,-0.13,-105.22,66.71,35.1
1.0,2024-05-10 14:37:37.015134720,0.55,1.1,-0.13,-105.22,66.71,35.1
1.0,2024-05-10 14:37:37.024600064,0.43340807174887896,0.974663677130045,-0.17663677130044844,-103.43659192825112,69.55977578475336,39.29560538116592
1.0,2024-05-10 14:37:37.034720768,0.15,0.67,-0.29,-95.52,82.21,57.92
1.0,2024-05-10 14:37:37.045049088,0.15,0.67,-0.29,-95.52,82.21,57.92
1.0,2024-05-10 14:37:37.055027200,0.15,0.67,-0.29,-95.52,82.21,57.92
1.0,2024-05-10 14:37:37.064878336,0.20985148514851484,0.6561881188118812,-0.29,-109.3579702970297,32.20420792079207,64.5490099009901
1.0,2024-05-10 14:37:37.074857984,0.28,0.64,-0.29,-134.89,-60.06,76.78
1.0,2024-05-10 14:37:37.085086464,0.28,0.64,-0.29,-134.89,-60.06,76.78
1.0,2024-05-10 14:37:37.095019008,0.28,0.64,-0.29,-134.89,-60.06,76.78
1.0,2024-05-10 14:37:37.104825856,0.35592,0.45896000000000003,-0.18488,-161.90568,-31.106960000000004,104.09336
1.0,2024-05-10 14:37:37.114993152,0.41,0.33,-0.11,-190.25,-0.73,132.75
1.0,2024-05-10 14:37:37.124692736,0.41,0.33,-0.11,-190.25,-0.73,132.75
1.0,2024-05-10 14:37:37.134710784,0.41,0.33,-0.11,-190.25,-0.73,132.75
1.0,2024-05-10 14:37:37.144739072,0.4971875,0.078125,-0.12937500000000002,-201.421875,-207.02296875,90.68359375
1.0,2024-05-10 14:37:37.154924800,0.5,0.07,-0.13,-203.25,-240.78,83.8
1.0,2024-05-10 14:37:37.164709632,0.5,0.07,-0.13,-203.25,-240.78,83.8
1.0,2024-05-10 14:37:37.174981120,0.5696183206106871,0.04751908396946565,-0.10171755725190841,-203.25,-240.78,83.8
1.0,2024-05-10 14:37:37.185058304,1.46,-0.24,0.26,-78.50380530973452,142.93398230088496,203.15433628318584
1.0,2024-05-10 14:37:37.194390272,1.46,-0.24,0.26,-77.39,146.36,204.22
1.0,2024-05-10 14:37:37.204912896,1.46,-0.24,0.26,-77.39,146.36,204.22
1.0,2024-05-10 14:37:37.215104512,1.2646186440677967,-0.13220338983050847,0.08258474576271187,-78.67771186440677,113.92949152542374,186.13483050847458
1.0,2024-05-10 14:37:37.225122560,0.59,0.24,-0.53,-87.52,-108.76,61.95
1.0,2024-05-10 14:37:37.235377152,0.59,0.24,-0.53,-87.52,-108.76,61.95
1.0,2024-05-10 14:37:37.245148672,0.59,0.24,-0.53,-87.52,-108.76,61.95
1.0,2024-05-10 14:37:37.255211520,1.0758333333333334,-0.13124999999999998,-0.14958333333333335,-75.71625,-50.08430555555556,86.97986111111112
1.0,2024-05-10 14:37:37.265182464,1.6499999999999997,-0.57,0.3,-42.79,113.59,156.80000000000004
1.0,2024-05-10 14:37:37.274568192,1.65,-0.57,0.3,-42.79,113.59,156.8
1.0,2024-05-10 14:37:37.284841728,1.65,-0.57,0.3,-42.79,113.59,156.8
1.0,2024-05-10 14:37:37.294759424,1.2803305785123966,-0.5179338842975206,0.013636363636363632,-61.72326446280992,41.109628099173555,129.85347107438017
1.0,2024-05-10 14:37:37.304889088,0.94,-0.47,-0.25,-93.14,-79.16,85.14
1.0,2024-05-10 14:37:37.314652928,0.94,-0.47,-0.25,-93.14,-79.16,85.14
1.0,2024-05-10 14:37:37.324570880,0.94,-0.47,-0.25,-93.14,-79.16,85.14
1.0,2024-05-10 14:37:37.334948096,1.3134117647058823,-0.7378823529411764,-0.047058823529411764,-56.511450980392155,-23.477176470588233,121.69890196078431
1.0,2024-05-10 14:37:37.345255936,1.4,-0.8,0.0,-30.03,16.78,148.13
1.0,2024-05-10 14:37:37.355251712,1.4,-0.8,0.0,-30.03,16.78,148.13
1.0,2024-05-10 14:37:37.365313792,1.4,-0.8,0.0,-30.03,16.78,148.13
1.0,2024-05-10 14:37:37.375324416,1.4191803278688524,-0.6561475409836065,0.0,-51.949754098360664,-57.10213114754099,98.09262295081966
1.0,2024-05-10 14:37:37.385655296,1.42,-0.65,0.0,-64.76,-100.28,68.85
1.0,2024-05-10 14:37:37.395026688,1.42,-0.65,0.0,-64.76,-100.28,68.85
1.0,2024-05-10 14:37:37.405293056,1.4280459770114942,-0.6306896551724138,0.009655172413793104,-64.76,-100.28,68.85
1.0,2024-05-10 14:37:37.415467776,1.47,-0.53,0.05999999999999999,-19.162060085836906,59.67330472103004,59.57274678111588
1.0,2024-05-10 14:37:37.425206528,1.47,-0.53,0.06,-17.33,66.1,59.2
1.0,2024-05-10 14:37:37.435363328,1.47,-0.53,0.06,-17.33,66.1,59.2
1.0,2024-05-10 14:37:37.445088000,1.339879518072289,-0.47457831325301203,0.043132530120481925,-18.645060240963854,63.677911646586345,52.843132530120485
1.0,2024-05-10 14:37:37.455419648,0.93,-0.3,-0.01,-26.18,49.8,16.42
1.0,2024-05-10 14:37:37.465193984,0.9300000000000002,-0.3,-0.01,-26.18,49.8,16.42
1.0,2024-05-10 14:37:37.474898432,0.93,-0.3,-0.01,-26.18,49.8,16.42
1.0,2024-05-10 14:37:37.484870144,0.9655212355212356,-0.331969111969112,0.05038610038610039,-26.927799227799227,47.765096525096524,14.927181467181468
1.0,2024-05-10 14:37:37.495278592,1.03,-0.39,0.16,-28.87,42.48,11.05
1.0,2024-05-10 14:37:37.505383424,1.03,-0.39,0.16,-28.87,42.48,11.05
1.0,2024-05-10 14:37:37.515166976,1.03,-0.39,0.16000000000000003,-28.87,42.48,11.05
1.0,2024-05-10 14:37:37.525024768,0.9839094650205762,-0.3570781893004115,0.11720164609053497,-27.085185185185185,37.75625514403291,11.96028806584362
1.0,2024-05-10 14:37:37.535287040,0.89,-0.29,0.03,-23.38,27.95,13.85
1.0,2024-05-10 14:37:37.545146880,0.8900000000000001,-0.2899999999999999,0.03,-23.38,27.95,13.85
1.0,2024-05-10 14:37:37.554928896,0.89,-0.29,0.03,-23.38,27.95,13.85
1.0,2024-05-10 14:37:37.565085952,1.055982142857143,-0.3729910714285714,0.15071428571428572,-36.331026785714286,4.648794642857142,0.6994196428571428
1.0,2024-05-10 14:37:37.574758656,1.11,-0.4,0.19,-42.85,-7.08,-5.92
1.0,2024-05-10 14:37:37.584779264,1.11,-0.4,0.19,-42.85,-7.08,-5.92
1.0,2024-05-10 14:37:37.595442688,1.11,-0.4,0.18999999999999997,-42.85,-7.079999999999999,-5.920000000000001
1.0,2024-05-10 14:37:37.605268480,1.017983193277311,-0.4092016806722689,0.1439915966386555,-6.2263865546218495,-12.353865546218488,-10.501008403361343
1.0,2024-05-10 14:37:37.615019008,1.01,-0.41,0.14,2.08,-13.55,-11.54
1.0,2024-05-10 14:37:37.624923648,1.01,-0.41,0.14,2.08,-13.55,-11.54
1.0,2024-05-10 14:37:37.635277568,1.026279069767442,-0.4059302325581395,0.14,1.965232558139535,-13.717945736434109,-11.47422480620155
1.0,2024-05-10 14:37:37.645010432,1.21,-0.36,0.14,-27.53,-56.88,5.43
1.0,2024-05-10 14:37:37.654650112,1.21,-0.36,0.14,-27.53,-56.88,5.43
1.0,2024-05-10 14:37:37.664879104,1.21,-0.35999999999999993,0.14,-27.53,-56.88,5.43
1.0,2024-05-10 14:37:37.675307776,1.2060330578512397,-0.44330578512396696,0.10231404958677687,-27.53,-56.88,5.43
1.0,2024-05-10 14:37:37.685543168,1.19,-0.78,-0.05,-76.67396551724138,-56.37258620689656,23.20827586206897
1.0,2024-05-10 14:37:37.695055872,1.19,-0.78,-0.05,-79.83,-56.34,24.35
1.0,2024-05-10 14:37:37.705346304,1.19,-0.78,-0.05,-79.83,-56.34,24.35
1.0,2024-05-10 14:37:37.715310592,1.2163374485596707,-0.9248559670781893,-0.059876543209876544,-79.83,-56.34,24.35
1.0,2024-05-10 14:37:37.725259776,1.27,-1.22,-0.08,-2.097234042553192,18.240085106382974,52.55731914893617
1.0,2024-05-10 14:37:37.735442432,1.27,-1.22,-0.08,13.37,33.08,58.17
1.0,2024-05-10 14:37:37.745073920,1.27,-1.22,-0.08,13.37,33.08,58.17
1.0,2024-05-10 14:37:37.754633728,0.9691699604743084,-0.801897233201581,-0.24316205533596838,37.956877470355735,21.193833992094863,18.85490118577075
1.0,2024-05-10 14:37:37.765074432,0.68,-0.4,-0.4,68.91,6.23,-30.64
1.0,2024-05-10 14:37:37.774738432,0.68,-0.4,-0.4,68.91,6.23,-30.639999999999997
1.0,2024-05-10 14:37:37.784993024,0.6799999999999999,-0.4,-0.4,68.91,6.23,-30.64
1.0,2024-05-10 14:37:37.795076096,0.9114285714285715,-0.5092857142857142,-0.2135714285714286,46.085546218487394,-35.10848739495798,-65.58642857142857
1.0,2024-05-10 14:37:37.804813568,1.04,-0.57,-0.11,16.17,-89.29,-111.39
1.0,2024-05-10 14:37:37.814912768,1.04,-0.57,-0.11,16.17,-89.29,-111.39
1.0,2024-05-10 14:37:37.825023232,1.04,-0.57,-0.11,16.17,-89.29,-111.39
1.0,2024-05-10 14:37:37.835001600,0.9712949640287769,-0.5012949640287769,-0.0962589928057554,33.63679856115108,-29.13244604316547,-103.01719424460431
1.0,2024-05-10 14:37:37.845228800,0.94,-0.47,-0.09,45.96,13.31,-97.11
1.0,2024-05-10 14:37:37.855579136,0.94,-0.47,-0.09,45.96,13.31,-97.11
1.0,2024-05-10 14:37:37.865278976,0.94,-0.47,-0.09,45.96,13.31,-97.11
1.0,2024-05-10 14:37:37.875238912,0.8808527131782945,-0.44465116279069766,-0.11534883720930232,52.136744186046506,17.894186046511628,-80.89418604651162
1.0,2024-05-10 14:37:37.885287168,0.87,-0.44,-0.11999999999999998,54.26,19.47,-75.32
1.0,2024-05-10 14:37:37.894799616,0.87,-0.44,-0.12,54.26,19.47,-75.32
1.0,2024-05-10 14:37:37.904987904,0.87,-0.44,-0.12,54.26,19.47,-75.32
1.0,2024-05-10 14:37:37.915270144,0.922995951417004,-0.20530364372469637,-0.0442914979757085,44.33497975708502,-10.267408906882592,-97.8357894736842
1.0,2024-05-10 14:37:37.925100544,0.94,-0.13,-0.02,41.08,-20.02,-105.22
1.0,2024-05-10 14:37:37.935401472,0.94,-0.13,-0.02,41.08,-20.02,-105.22
1.0,2024-05-10 14:37:37.945097472,0.94,-0.16699604743083005,-0.00458498023715415,41.08,-20.02,-105.22
1.0,2024-05-10 14:37:37.955217920,0.94,-0.49,0.13,85.36702290076336,35.19049618320611,-117.40881679389314
1.0,2024-05-10 14:37:37.965248768,0.94,-0.49,0.13,85.88,35.83,-117.55
1.0,2024-05-10 14:37:37.974949888,0.94,-0.49,0.13,85.88,35.83,-117.55
1.0,2024-05-10 14:37:37.985190144,0.9400000000000001,-0.49,0.13,85.88,35.83,-117.55
1.0,2024-05-10 14:37:37.995173888,0.8218181818181818,0.024090909090909097,-0.029545454545454552,121.72619834710743,56.959834710743806,-82.81280991735538
1.0,2024-05-10 14:37:38.005047296,0.74,0.38,-0.14,146.97,71.84,-58.35
1.0,2024-05-10 14:37:38.014984192,0.74,0.38,-0.14,146.97,71.84,-58.35
1.0,2024-05-10 14:37:38.024649728,0.7696629213483146,0.3355056179775281,-0.08808988764044945,131.37842696629212,51.94730337078652,-79.57752808988765
1.0,2024-05-10 14:37:38.035405824,0.82,0.26,0.0,104.92,18.19,-115.6
1.0,2024-05-10 14:37:38.045564928,0.82,0.26,0.0,104.92,18.19,-115.6
1.0,2024-05-10 14:37:38.055001088,0.82,0.26,0.0,104.92,18.19,-115.6
1.0,2024-05-10 14:37:38.065100544,0.8426938775510203,0.39048979591836736,-0.06240816326530613,133.17902040816327,40.08975510204082,-93.70024489795918
1.0,2024-05-10 14:37:38.075167232,0.86,0.49,-0.11,155.09,57.07,-76.72
1.0,2024-05-10 14:37:38.085059072,0.86,0.49,-0.10999999999999999,155.09,57.06999999999999,-76.72
1.0,2024-05-10 14:37:38.095046400,0.86,0.49,-0.11,155.09,57.07,-76.72
1.0,2024-05-10 14:37:38.105010176,0.8879545454545456,0.6204545454545455,-0.11,157.19227272727272,21.81068181818182,-121.63295454545454
1.0,2024-05-10 14:37:38.114739456,0.89,0.63,-0.11,157.59,15.14,-130.13
1.0,2024-05-10 14:37:38.124455424,0.89,0.63,-0.11,157.59,15.14,-130.13
1.0,2024-05-10 14:37:38.134521856,0.880909090909091,0.6398814229249012,-0.12067193675889329,157.59,15.14,-130.13
1.0,2024-05-10 14:37:38.144681984,0.66,0.88,-0.38,133.38392996108948,8.96910505836576,-109.94603112840467
1.0,2024-05-10 14:37:38.154830336,0.66,0.88,-0.38,131.23,8.42,-108.15
1.0,2024-05-10 14:37:38.164887552,0.66,0.88,-0.38,131.23,8.42,-108.15
1.0,2024-05-10 14:37:38.174874624,0.6505243445692884,0.919625468164794,-0.38689138576779025,115.48835205992508,-4.8450561797752805,-105.39
1.0,2024-05-10 14:37:38.185188608,0.55,1.34,-0.46,-51.51,-145.57,-76.11
1.0,2024-05-10 14:37:38.194724864,0.55,1.34,-0.46,-51.51,-145.57,-76.11
1.0,2024-05-10 14:37:38.204842752,0.55,1.34,-0.46,-51.51,-145.57,-76.11
1.0,2024-05-10 14:37:38.215003904,0.55,1.34,-0.46,-51.51,-145.57,-76.11
1.0,2024-05-10 14:37:38.225027840,0.523235294117647,1.0924264705882352,-0.28602941176470587,-51.51,-145.57,-76.11
1.0,2024-05-10 14:37:38.234912000,0.51,0.97,-0.2,-51.51,-145.57,-76.11
1.0,2024-05-10 14:37:38.244594432,0.51,0.97,-0.2,-65.44260869565217,-171.92847826086955,-97.19804347826087
1.0,2024-05-10 14:37:38.254789888,0.4506844106463878,1.1034600760456272,-0.2840304182509506,-40.08718631178707,-145.92296577946766,-83.54102661596959
1.0,2024-05-10 14:37:38.265097728,0.39,1.24,-0.37,40.89,-45.78,-20.69
1.0,2024-05-10 14:37:38.275351552,0.39,1.24,-0.37,40.89,-45.78,-20.69
1.0,2024-05-10 14:37:38.285254144,0.39,1.24,-0.37,40.89,-45.78,-20.69
1.0,2024-05-10 14:37:38.294713856,0.4519327731092437,1.0992436974789916,-0.30806722689075633,18.521008403361346,-48.80344537815126,-21.55142857142857
1.0,2024-05-10 14:37:38.304837888,0.5,0.99,-0.26,1.16,-51.15,-22.22
1.0,2024-05-10 14:37:38.315102464,0.5,0.99,-0.26,1.16,-51.15,-22.22
1.0,2024-05-10 14:37:38.325442048,0.5,0.99,-0.26,1.16,-51.15,-22.22
1.0,2024-05-10 14:37:38.335524096,0.5464069264069265,0.8159740259740259,-0.3122077922077922,-2.352121212121212,-48.79515151515152,-12.869696969696971
1.0,2024-05-10 14:37:38.345430528,0.58,0.69,-0.35,-4.94,-47.06,-5.98
1.0,2024-05-10 14:37:38.354897920,0.58,0.69,-0.35,-4.94,-47.06,-5.98
1.0,2024-05-10 14:37:38.364770560,0.58,0.69,-0.35,-4.94,-47.06,-5.98
1.0,2024-05-10 14:37:38.374812160,0.6491764705882352,0.7130588235294117,-0.40380392156862743,-11.319607843137256,-14.731529411764706,-0.9608627450980393
1.0,2024-05-10 14:37:38.384775424,0.67,0.72,-0.42,-13.24,-5.0,0.55
1.0,2024-05-10 14:37:38.394842880,0.67,0.72,-0.42000000000000004,-13.24,-5.0,0.55
1.0,2024-05-10 14:37:38.404782848,0.6649809885931559,0.7300380228136882,-0.3873764258555133,-13.24,-5.0,0.55
1.0,2024-05-10 14:37:38.414987008,0.65,0.76,-0.29,-28.288401486988846,29.825204460966543,-1.205167286245353
1.0,2024-05-10 14:37:38.424811008,0.65,0.76,-0.29,-28.93,31.31,-1.28
1.0,2024-05-10 14:37:38.434809600,0.65,0.76,-0.29,-28.93,31.31,-1.28
1.0,2024-05-10 14:37:38.445020160,0.6179230769230769,0.7386153846153846,-0.22584615384615384,-19.675230769230772,38.76615384615384,0.49369230769230776
1.0,2024-05-10 14:37:38.455349504,0.59,0.72,-0.17,-6.65,49.26,2.99
1.0,2024-05-10 14:37:38.465156096,0.59,0.72,-0.17,-6.65,49.26,2.99
1.0,2024-05-10 14:37:38.474630144,0.59,0.72,-0.17,-6.65,49.26,2.99
1.0,2024-05-10 14:37:38.484952064,0.6241911764705882,0.9524999999999999,-0.15632352941176472,10.278639705882352,60.637352941176474,4.326764705882353
1.0,2024-05-10 14:37:38.494839040,0.64,1.06,-0.15,38.94,79.9,6.59
1.0,2024-05-10 14:37:38.504902400,0.64,1.06,-0.15,38.94,79.9,6.59
1.0,2024-05-10 14:37:38.515195392,0.64,1.06,-0.15,38.94,79.9,6.59
1.0,2024-05-10 14:37:38.524882944,0.514,1.0852,-0.14160000000000003,51.8056,97.434,7.368799999999999
1.0,2024-05-10 14:37:38.535086592,0.49,1.09,-0.14,68.18,119.75,8.36
1.0,2024-05-10 14:37:38.545152768,0.49,1.09,-0.14,68.18,119.75,8.36
1.0,2024-05-10 14:37:38.555320576,0.49,1.09,-0.14,68.18,119.75,8.36
1.0,2024-05-10 14:37:38.565233920,0.5246491228070176,1.1246491228070177,-0.16078947368421054,97.74263157894737,121.19140350877193,21.180175438596493
1.0,2024-05-10 14:37:38.575029248,0.54,1.14,-0.17,110.84,121.83,26.86
1.0,2024-05-10 14:37:38.585031936,0.54,1.14,-0.17,110.84,121.83,26.86
1.0,2024-05-10 14:37:38.595074816,0.54,1.14,-0.17,110.84,121.82999999999998,26.86
1.0,2024-05-10 14:37:38.605103616,0.38582995951417004,1.3905263157894736,-0.3145344129554656,13.151862348178136,46.80558704453441,49.63886639676114
1.0,2024-05-10 14:37:38.615004160,0.38,1.4,-0.32,9.03,43.64,50.6
1.0,2024-05-10 14:37:38.625293312,0.38,1.4,-0.32,9.03,43.64,50.6
1.0,2024-05-10 14:37:38.635210496,0.6003999999999999,1.0275999999999998,-0.008400000000000005,-5.454960000000001,31.0904,37.49096
1.0,2024-05-10 14:37:38.644736256,0.67,0.91,0.09,-10.13,27.04,33.26
1.0,2024-05-10 14:37:38.655074048,0.67,0.91,0.09,-10.13,27.04,33.26
1.0,2024-05-10 14:37:38.665197824,0.5079032258064516,0.8613709677419356,-0.15854838709677418,-13.713870967741935,13.336774193548386,37.41483870967742
1.0,2024-05-10 14:37:38.675176448,0.37,0.82,-0.37,-21.24,-15.44,46.14
1.0,2024-05-10 14:37:38.685051904,0.37,0.82,-0.37,-21.24,-15.439999999999998,46.14
1.0,2024-05-10 14:37:38.695026688,0.37,0.82,-0.37,-21.24,-15.44,46.14
1.0,2024-05-10 14:37:38.705175296,0.5781974248927039,0.7524034334763948,-0.27806866952789705,-32.85236051502146,-26.61330472103004,40.27793991416309
1.0,2024-05-10 14:37:38.715154944,1.14,0.57,-0.03,-64.88,-57.43,24.11
1.0,2024-05-10 14:37:38.725267200,1.14,0.57,-0.03,-64.88,-57.43,24.11
1.0,2024-05-10 14:37:38.735572224,1.14,0.57,-0.03,-64.88,-57.43,24.11
1.0,2024-05-10 14:37:38.745171712,0.8656387665198237,0.39471365638766526,-0.479647577092511,-43.853171806167396,30.867136563876652,20.749074889867842
1.0,2024-05-10 14:37:38.754976768,0.78,0.34,-0.62,-32.41,78.92,18.92
1.0,2024-05-10 14:37:38.764883456,0.78,0.34,-0.62,-32.41,78.92,18.92
1.0,2024-05-10 14:37:38.775114752,0.78,0.34,-0.62,-32.41,78.92,18.92
1.0,2024-05-10 14:37:38.785346560,0.9085057471264368,0.2905747126436781,-0.3827586206896552,-81.83777777777777,-70.21946360153257,3.2426053639846746
1.0,2024-05-10 14:37:38.795250944,0.91,0.29,-0.38,-95.34,-110.95999999999998,-1.04
1.0,2024-05-10 14:37:38.804791808,0.91,0.29,-0.38,-95.34,-110.96,-1.04
1.0,2024-05-10 14:37:38.814930688,0.8780071174377224,0.2776156583629893,-0.39960854092526693,-95.2161565836299,-109.91480427046262,-0.8132384341637011
1.0,2024-05-10 14:37:38.825249536,0.6,0.17,-0.57,-89.54,-62.01,9.58
1.0,2024-05-10 14:37:38.835299584,0.6,0.17,-0.57,-89.54,-62.01,9.58
1.0,2024-05-10 14:37:38.845046016,0.6,0.17,-0.57,-89.54,-62.01,9.58
1.0,2024-05-10 14:37:38.854798592,0.7067886178861789,0.0891869918699187,-0.4516666666666666,-87.85052845528455,-56.93691056910569,19.657926829268295
1.0,2024-05-10 14:37:38.864933376,0.9700000000000001,-0.11,-0.16,-71.47,-7.75,117.37
1.0,2024-05-10 14:37:38.874686464,0.97,-0.11,-0.16,-71.47,-7.75,117.37
1.0,2024-05-10 14:37:38.884841216,0.97,-0.11,-0.16,-71.47,-7.75,117.37
1.0,2024-05-10 14:37:38.894639616,0.7271304347826087,-0.0631304347826087,-0.41565217391304343,-70.37130434782608,-1.6493478260869572,119.15021739130434
1.0,2024-05-10 14:37:38.905075712,0.4,0.0,-0.76,-58.17,66.1,138.92
1.0,2024-05-10 14:37:38.914944256,0.4,0.0,-0.76,-58.17,66.1,138.92
1.0,2024-05-10 14:37:38.924935680,0.4,0.0,-0.76,-58.17,66.1,138.92
1.0,2024-05-10 14:37:38.935132928,1.0032258064516129,-0.5535483870967742,-0.1993548387096774,-102.60661290322581,-36.434556451612906,140.80375
1.0,2024-05-10 14:37:38.945013248,1.25,-0.78,0.03,-138.61,-119.51,142.33
1.0,2024-05-10 14:37:38.955168768,1.25,-0.78,0.03,-138.61,-119.51,142.33
1.0,2024-05-10 14:37:38.965328384,1.25,-0.78,0.03,-138.61,-119.51,142.33
1.0,2024-05-10 14:37:38.975096576,0.909367088607595,-0.6839240506329114,-0.4591139240506329,-65.30316455696203,52.17666666666667,198.76535864978902
1.0,2024-05-10 14:37:38.984948736,0.86,-0.67,-0.53,-43.15,104.06,215.82
1.0,2024-05-10 14:37:38.994552832,0.86,-0.67,-0.53,-43.15,104.06,215.82
1.0,2024-05-10 14:37:39.004915456,0.86,-0.67,-0.53,-43.15,104.06,215.82
1.0,2024-05-10 14:37:39.015141120,1.4877394636015326,-0.836743295019157,0.009463601532567048,-97.74624521072798,19.899463601532567,147.59471264367818
1.0,2024-05-10 14:37:39.025127424,1.5,-0.84,0.02,-111.33,-1.04,130.62
1.0,2024-05-10 14:37:39.035132928,1.5,-0.84,0.02,-111.33,-1.04,130.62
1.0,2024-05-10 14:37:39.044898560,1.4763706563706565,-0.7955212355212354,0.0074903474903474905,-109.59061776061776,1.2742857142857142,128.95359073359074
1.0,2024-05-10 14:37:39.055015680,1.33,-0.52,-0.07,-66.28,58.9,87.46
1.0,2024-05-10 14:37:39.065359872,1.33,-0.52,-0.07,-66.28,58.9,87.46
1.0,2024-05-10 14:37:39.075043840,1.33,-0.52,-0.07,-66.28,58.9,87.46
1.0,2024-05-10 14:37:39.085059840,1.2842857142857143,-0.5085714285714286,-0.01,-67.58701298701298,65.7612987012987,76.46571428571428
1.0,2024-05-10 14:37:39.091442944,1.17,-0.48000000000000004,0.14,-72.57,91.92,34.55
,,,,,,,
1.0,2024-05-10 14:37:39.116953088,1.17,-0.48,0.14,-72.57,91.92,34.55
1.0,2024-05-10 14:37:39.125046272,1.0834883720930233,-0.4295348837209302,0.12558139534883722,-60.62333333333333,93.14542635658916,33.89759689922481
1.0,2024-05-10 14:37:39.135193088,0.93,-0.34,0.1,-24.41,96.86,31.92
1.0,2024-05-10 14:37:39.145184768,0.93,-0.34,0.1,-24.41,96.86,31.920000000000005
1.0,2024-05-10 14:37:39.155424000,0.93,-0.34,0.1,-24.41,96.86,31.92
1.0,2024-05-10 14:37:39.165441280,0.9411904761904762,-0.3344047619047619,0.08321428571428573,-27.807380952380953,62.402142857142856,20.601428571428574
1.0,2024-05-10 14:37:39.175368960,0.95,-0.33,0.07,-31.919999999999998,20.69,6.9
1.0,2024-05-10 14:37:39.185203712,0.95,-0.33,0.06999999999999999,-31.919999999999998,20.69,6.9
1.0,2024-05-10 14:37:39.194712832,0.95,-0.33,0.06999999999999999,-31.919999999999998,20.69,6.9
1.0,2024-05-10 14:37:39.204610816,1.0184426229508197,-0.35737704918032787,0.1315983606557377,-28.049918032786888,-8.32688524590164,0.6089344262295082
1.0,2024-05-10 14:37:39.215009536,1.05,-0.37,0.16,-25.27,-29.17,-3.91
1.0,2024-05-10 14:37:39.225119488,1.05,-0.37,0.16,-25.27,-29.17,-3.91
1.0,2024-05-10 14:37:39.235080960,1.05,-0.36999999999999994,0.16,-25.27,-29.17,-3.91
1.0,2024-05-10 14:37:39.244660736,1.073702290076336,-0.34629770992366415,0.0651908396946565,-3.027633587786259,-9.78030534351145,-3.175648854961832
1.0,2024-05-10 14:37:39.254678016,1.08,-0.34,0.04,6.23,-1.71,-2.87
1.0,2024-05-10 14:37:39.264917760,1.08,-0.34,0.04,6.23,-1.71,-2.87
1.0,2024-05-10 14:37:39.275258368,1.079076923076923,-0.34,0.040615384615384616,6.23,-1.71,-2.87
1.0,2024-05-10 14:37:39.284996352,1.05,-0.34,0.06,-23.773305439330542,-2.0860251046025104,-9.75213389121339
1.0,2024-05-10 14:37:39.294824704,1.05,-0.34,0.06,-28.08,-2.14,-10.74
1.0,2024-05-10 14:37:39.305083136,1.05,-0.34,0.06,-28.08,-2.14,-10.74
1.0,2024-05-10 14:37:39.315616768,1.1199999999999999,-0.41000000000000003,0.109,-26.095,7.549999999999999,-11.2125
1.0,2024-05-10 14:37:39.325520640,1.25,-0.54,0.2,-20.14,36.62,-12.63
1.0,2024-05-10 14:37:39.335529728,1.25,-0.54,0.2,-20.14,36.62,-12.63
1.0,2024-05-10 14:37:39.345863936,1.25,-0.54,0.2,-20.14,36.62,-12.63
1.0,2024-05-10 14:37:39.355264768,1.23716,-0.55284,0.18288,-5.46892,47.078,-17.759400000000003
1.0,2024-05-10 14:37:39.365272576,1.22,-0.5699999999999998,0.16,24.05,68.12,-28.080000000000002
1.0,2024-05-10 14:37:39.374998272,1.22,-0.57,0.16,24.05,68.12,-28.08
1.0,2024-05-10 14:37:39.385399552,1.22,-0.57,0.16,24.05,68.12,-28.08
1.0,2024-05-10 14:37:39.395010816,1.1038297872340423,-0.7636170212765957,0.1046808510638298,5.351489361702129,59.7568085106383,25.417021276595744
1.0,2024-05-10 14:37:39.405186560,1.01,-0.92,0.060000000000000005,-14.16,51.03,81.24
1.0,2024-05-10 14:37:39.415173376,1.01,-0.92,0.06,-14.16,51.03,81.24
1.0,2024-05-10 14:37:39.425540352,1.01,-0.92,0.06,-14.16,51.03,81.24
1.0,2024-05-10 14:37:39.435573504,0.848,-0.74,-0.030000000000000002,32.71304347826087,48.77608695652174,96.64869565217391
1.0,2024-05-10 14:37:39.444957696,0.83,-0.72,-0.04,53.22,47.79,103.39
1.0,2024-05-10 14:37:39.454883584,0.83,-0.72,-0.04,53.22,47.79,103.39
1.0,2024-05-10 14:37:39.465124864,0.83,-0.72,-0.04,53.22,47.79,103.39
1.0,2024-05-10 14:37:39.475061248,0.8205405405405405,-0.9564864864864865,-0.2575675675675676,51.991119691119685,-52.43949806949808,43.284285714285716
1.0,2024-05-10 14:37:39.485148928,0.82,-0.97,-0.27,51.76,-71.29,31.98
1.0,2024-05-10 14:37:39.494836224,0.8200000000000001,-0.97,-0.27,51.76,-71.28999999999999,31.98
1.0,2024-05-10 14:37:39.504604416,0.8553076923076923,-0.9333846153846153,-0.22423076923076923,52.45515384615385,-71.41492307692307,31.050076923076926
1.0,2024-05-10 14:37:39.514805760,1.09,-0.69,0.08,77.58,-75.93,-2.56
1.0,2024-05-10 14:37:39.525119488,1.09,-0.69,0.08,77.58,-75.93,-2.56
1.0,2024-05-10 14:37:39.535118336,1.09,-0.69,0.08,77.58,-75.93,-2.56
1.0,2024-05-10 14:37:39.544916480,0.9946037735849056,-0.7376981132075471,0.023358490566037737,82.55132075471698,-73.88547169811321,-9.28
1.0,2024-05-10 14:37:39.555073280,0.77,-0.85,-0.11,124.63000000000001,-56.58,-66.16
1.0,2024-05-10 14:37:39.565011200,0.77,-0.85,-0.11,124.63,-56.58,-66.16
1.0,2024-05-10 14:37:39.575001600,0.77,-0.85,-0.11,124.63,-56.58,-66.16
1.0,2024-05-10 14:37:39.585101568,0.8808870967741936,-0.6282258064516129,-0.08338709677419355,128.46431451612904,-60.69145161290322,-62.28358870967742
1.0,2024-05-10 14:37:39.594764032,1.02,-0.35,-0.05,135.56,-68.3,-55.11
1.0,2024-05-10 14:37:39.605117952,1.02,-0.35,-0.05,135.56,-68.3,-55.11000000000001
1.0,2024-05-10 14:37:39.615229440,1.02,-0.35,-0.05,135.56,-68.3,-55.11
1.0,2024-05-10 14:37:39.625512704,0.888,-0.33852173913043476,-0.02704347826086957,123.0988695652174,-66.78986956521739,-76.81378260869565
1.0,2024-05-10 14:37:39.635585280,0.79,-0.33,-0.01,74.58,-60.91,-161.32
1.0,2024-05-10 14:37:39.645456896,0.79,-0.33,-0.01,74.58,-60.91,-161.32
1.0,2024-05-10 14:37:39.655470592,0.79,-0.33,-0.01,74.58,-60.91,-161.32
1.0,2024-05-10 14:37:39.665126912,0.79,-0.33,-0.01,74.58,-60.91,-161.32
1.0,2024-05-10 14:37:39.675243520,0.8203396226415094,-0.26932075471698114,0.027924528301886794,98.21773584905661,-10.193018867924527,-131.97660377358488
1.0,2024-05-10 14:37:39.685104896,0.83,-0.25,0.04,105.9,6.29,-122.44
1.0,2024-05-10 14:37:39.694808832,0.83,-0.25,0.04000000000000001,105.9,6.290000000000001,-122.44
1.0,2024-05-10 14:37:39.704987392,0.65984375,0.005234375000000001,-0.060546875,107.74843750000001,-30.335468749999997,-131.34550781250002
1.0,2024-05-10 14:37:39.715138816,0.61,0.08,-0.09,108.7,-49.19,-135.93
1.0,2024-05-10 14:37:39.724800256,0.61,0.08,-0.09,108.7,-49.19,-135.93
1.0,2024-05-10 14:37:39.735081728,0.61,0.08,-0.09,108.7,-49.19,-135.93
1.0,2024-05-10 14:37:39.743562496,0.6912578616352201,0.15169811320754717,-0.07566037735849056,114.91383647798742,-52.31603773584906,-130.29930817610062
