id,timestamp,acc_x,acc_y,acc_z,gyro_x,gyro_y,gyro_z
3.0,2024-05-10 14:35:53.757614848,2.731219512195122,-1.9297560975609758,-0.6497560975609756,-26.83609756097561,-236.64048780487806,-557.5119512195122
3.0,2024-05-10 14:35:53.764963840,2.74,-1.91,-0.66,-31.13,-257.2,-551.76
3.0,2024-05-10 14:35:53.775044608,2.74,-1.91,-0.66,-31.13,-257.2,-551.76
3.0,2024-05-10 14:35:53.785217792,2.74,-1.9099999999999997,-0.66,-31.130000000000003,-257.2,-551.76
3.0,2024-05-10 14:35:53.794923008,2.7147727272727273,-1.8797272727272725,-0.7087727272727273,-38.87,-261.1649090909091,-542.5603636363636
3.0,2024-05-10 14:35:53.804739584,2.59,-1.73,-0.95,-78.43,-281.43,-495.54
3.0,2024-05-10 14:35:53.814992384,2.59,-1.73,-0.95,-78.43,-281.43,-495.54
3.0,2024-05-10 14:35:53.824877312,2.59,-1.73,-0.95,-78.43,-281.43,-495.54
3.0,2024-05-10 14:35:53.834863872,2.602537313432836,-1.6829850746268658,-1.0659701492537312,-117.92800995024875,-280.9981592039801,-473.57164179104484
3.0,2024-05-10 14:35:53.844925952,2.63,-1.58,-1.32,-206.48,-280.03,-424.32
3.0,2024-05-10 14:35:53.854756864,2.63,-1.5799999999999998,-1.32,-206.48,-280.03,-424.32
3.0,2024-05-10 14:35:53.865091328,2.63,-1.58,-1.32,-206.48,-280.03,-424.32
3.0,2024-05-10 14:35:53.875653120,2.783551020408163,-1.620408163265306,-1.4573877551020409,-253.47999999999996,-305.6228571428572,-413.8985714285715
3.0,2024-05-10 14:35:53.885031680,2.82,-1.63,-1.49,-272.28,-315.86,-409.73
3.0,2024-05-10 14:35:53.894759936,2.82,-1.63,-1.49,-272.28,-315.86,-409.73
3.0,2024-05-10 14:35:53.904811008,2.8200000000000003,-1.63,-1.49,-272.28,-315.86,-409.73
3.0,2024-05-10 14:35:53.914588672,2.078405172413793,-1.7655603448275863,-0.9477586206896551,-333.73525862068965,-272.17586206896556,-358.8815517241379
3.0,2024-05-10 14:35:53.924741376,1.89,-1.8,-0.81,-360.29,-253.3,-336.91
3.0,2024-05-10 14:35:53.934748416,1.89,-1.8,-0.81,-360.29,-253.3,-336.91
3.0,2024-05-10 14:35:53.944819712,1.724589552238806,-1.9426119402985076,-0.5970522388059702,-360.29,-253.30000000000004,-336.91
3.0,2024-05-10 14:35:53.954779904,-1.52,-4.74,3.58,-391.8443396226415,-234.0463679245283,-322.3427358490566
3.0,2024-05-10 14:35:53.964756480,-1.52,-4.740000000000001,3.58,-399.41,-229.43000000000004,-318.85
3.0,2024-05-10 14:35:53.974695680,-1.52,-4.74,3.58,-399.41,-229.43,-318.85
3.0,2024-05-10 14:35:53.982271744,-1.52,-4.74,3.58,-399.41,-229.43,-318.85
3.0,2024-05-10 14:35:53.996732672,-3.3865714285714286,-6.785285714285714,7.5117142857142865,-87.38478571428573,-123.62121428571429,-28.032214285714286
3.0,2024-05-10 14:35:54.004980736,-3.4,-6.8,7.54,-85.14,-122.86,-25.94
3.0,2024-05-10 14:35:54.014739456,-3.4,-6.8,7.54,-85.14,-122.86,-25.94
3.0,2024-05-10 14:35:54.024858624,-1.8989169675090252,-6.008519855595668,5.497617328519856,78.53093862815884,78.48855595667871,90.52931407942239
3.0,2024-05-10 14:35:54.035170304,-0.1,-5.06,3.05,392.09,464.23,313.66
3.0,2024-05-10 14:35:54.044900864,-0.1,-5.06,3.05,392.09,464.23,313.66
3.0,2024-05-10 14:35:54.055187712,-0.1,-5.06,3.05,392.09,464.23,313.66
3.0,2024-05-10 14:35:54.064818688,0.3678341013824885,-4.845576036866359,1.9388940092165896,428.79981566820277,409.9114285714286,318.06110599078346
3.0,2024-05-10 14:35:54.074633984,2.06,-4.07,-2.08,561.58,213.44,333.98
3.0,2024-05-10 14:35:54.085144320,2.06,-4.07,-2.08,561.58,213.44,333.98
3.0,2024-05-10 14:35:54.095431936,2.06,-4.07,-2.08,561.58,213.44,333.98
3.0,2024-05-10 14:35:54.104934912,3.049106382978723,-3.182340425531915,-1.965872340425532,537.7494042553192,239.73059574468087,314.08017021276595
3.0,2024-05-10 14:35:54.114725632,3.62,-2.67,-1.9,516.05,263.67,295.96
3.0,2024-05-10 14:35:54.124943104,3.62,-2.67,-1.9,516.05,263.67,295.96
3.0,2024-05-10 14:35:54.135202048,3.62,-2.67,-1.9,516.05,263.67,295.96
3.0,2024-05-10 14:35:54.144790272,3.7298106060606058,-2.137840909090909,-1.1059848484848482,284.5536363636363,492.59625000000005,398.16318181818184
3.0,2024-05-10 14:35:54.154880512,3.75,-2.04,-0.96,192.69,583.44,438.72
3.0,2024-05-10 14:35:54.165154560,3.75,-2.04,-0.96,192.69,583.44,438.72
3.0,2024-05-10 14:35:54.175327232,3.75,-2.04,-0.96,192.69,583.44,438.72
3.0,2024-05-10 14:35:54.185101824,2.3961538461538465,-2.0200904977375567,-1.0197285067873303,204.0642081447964,277.34552036199096,397.37945701357467
3.0,2024-05-10 14:35:54.194563072,2.39,-2.02,-1.02,205.99,225.52,390.38
3.0,2024-05-10 14:35:54.204616192,2.39,-2.02,-1.02,205.99000000000004,225.52,390.38
3.0,2024-05-10 14:35:54.214471424,2.412846153846154,-2.0221153846153848,-0.9751538461538461,205.99,225.52,390.38
3.0,2024-05-10 14:35:54.224867328,2.93,-2.07,0.04,321.91778210116735,108.27424124513618,340.13439688715954
3.0,2024-05-10 14:35:54.234916608,2.93,-2.07,0.04,334.41,95.64,334.72
3.0,2024-05-10 14:35:54.244815872,2.93,-2.07,0.04,334.41,95.64,334.72
3.0,2024-05-10 14:35:54.255057152,2.915992217898833,-2.072801556420233,-0.027237354085603113,334.41,95.64,334.72
3.0,2024-05-10 14:35:54.265226240,2.83,-2.09,-0.44,304.8240740740741,240.8562962962963,360.23185185185184
3.0,2024-05-10 14:35:54.275389440,2.83,-2.09,-0.44,298.1,273.86,366.03
3.0,2024-05-10 14:35:54.285340672,2.83,-2.09,-0.44,298.1,273.86,366.03
3.0,2024-05-10 14:35:54.295010048,2.8070954356846474,-2.1043153526970952,-0.4600414937759336,281.75622406639,280.9274273858921,371.94535269709536
3.0,2024-05-10 14:35:54.304884224,2.75,-2.14,-0.51,210.57,311.71,397.71
3.0,2024-05-10 14:35:54.315011072,2.75,-2.14,-0.51,210.57,311.71,397.71
3.0,2024-05-10 14:35:54.324828416,2.75,-2.14,-0.51,210.57,311.71,397.71
3.0,2024-05-10 14:35:54.335104768,3.1018796992481206,-2.0407518796992483,-0.40172932330827066,171.55499999999998,330.2028571428571,415.4571428571428
3.0,2024-05-10 14:35:54.345111808,3.53,-1.92,-0.27,28.5,398.01000000000005,480.53
3.0,2024-05-10 14:35:54.355196160,3.53,-1.92,-0.27,28.5,398.01,480.53
3.0,2024-05-10 14:35:54.365171968,3.53,-1.92,-0.27,28.5,398.01,480.53
3.0,2024-05-10 14:35:54.374762240,3.5171784232365146,-1.7575933609958505,-0.17170124481327803,-20.98792531120332,434.98904564315353,476.5165145228216
3.0,2024-05-10 14:35:54.384983808,3.5,-1.54,-0.04,-196.53,566.16,462.28
3.0,2024-05-10 14:35:54.395221504,3.5,-1.54,-0.04,-196.53,566.16,462.28
3.0,2024-05-10 14:35:54.404826112,3.5,-1.54,-0.04,-196.53,566.16,462.28
3.0,2024-05-10 14:35:54.414867200,5.30341726618705,-1.3070863309352518,-1.450791366906475,-134.62758992805755,410.58348920863307,417.1078417266187
3.0,2024-05-10 14:35:54.425142016,6.21,-1.19,-2.16,-67.14,240.97,367.86
3.0,2024-05-10 14:35:54.435000064,6.21,-1.19,-2.16,-67.14,240.97,367.86
3.0,2024-05-10 14:35:54.445244416,6.21,-1.19,-2.16,-67.14,240.97,367.86
3.0,2024-05-10 14:35:54.454869760,6.228853754940712,-0.7500790513833991,-1.179604743083004,-156.05430830039523,165.82521739130434,237.40458498023716
3.0,2024-05-10 14:35:54.464984320,6.24,-0.49,-0.6,-208.62,121.4,160.28
3.0,2024-05-10 14:35:54.475238144,6.24,-0.49,-0.6,-208.62,121.4,160.28
3.0,2024-05-10 14:35:54.484970752,6.9579069767441855,0.38906976744186045,-1.23,-53.13821705426357,54.34255813953489,9.662945736434107
3.0,2024-05-10 14:35:54.494897664,7.22,0.71,-1.46,37.48,15.26,-78.12
3.0,2024-05-10 14:35:54.505090816,7.22,0.71,-1.46,37.48,15.259999999999998,-78.12
3.0,2024-05-10 14:35:54.515580672,7.22,0.71,-1.46,37.48,15.26,-78.12
3.0,2024-05-10 14:35:54.525120000,4.912244897959184,-0.34959183673469385,-0.45428571428571435,28.1934693877551,-4.684489795918367,-292.1725714285714
3.0,2024-05-10 14:35:54.535294720,4.65,-0.47,-0.34,25.63,-10.19,-351.26
3.0,2024-05-10 14:35:54.544890112,4.65,-0.47,-0.34,25.63,-10.19,-351.26
3.0,2024-05-10 14:35:54.555074304,4.65,-0.47000000000000003,-0.3400000000000001,25.63,-10.19,-351.26
3.0,2024-05-10 14:35:54.565293568,3.7153061224489794,-0.6475918367346939,-0.44281632653061226,24.519714285714286,28.595428571428567,-452.7517142857143
3.0,2024-05-10 14:35:54.574882304,3.65,-0.66,-0.45,24.29,36.62,-473.75
3.0,2024-05-10 14:35:54.584865024,3.65,-0.66,-0.45,24.29,36.62,-473.75
3.0,2024-05-10 14:35:54.595393024,3.5802325581395347,-0.7483720930232558,-0.4558139534883721,23.966372093023253,36.20102325581395,-474.0185581395349
3.0,2024-05-10 14:35:54.605132288,3.0499999999999994,-1.4200000000000002,-0.5,-10.5,-8.42,-502.62
3.0,2024-05-10 14:35:54.614977024,3.05,-1.42,-0.5,-10.5,-8.42,-502.61999999999995
3.0,2024-05-10 14:35:54.625177088,3.05,-1.42,-0.5,-10.5,-8.42,-502.62
3.0,2024-05-10 14:35:54.635100928,3.019620253164557,-1.5627848101265822,-0.5,-6.140675105485232,-12.435780590717298,-516.5054008438818
3.0,2024-05-10 14:35:54.645240832,2.95,-1.89,-0.5,11.96,-29.11,-574.16
3.0,2024-05-10 14:35:54.655000064,2.95,-1.89,-0.5,11.96,-29.11,-574.16
3.0,2024-05-10 14:35:54.664592384,2.95,-1.89,-0.5,11.96,-29.11,-574.16
3.0,2024-05-10 14:35:54.674767616,2.890405904059041,-1.9776383763837637,-0.46494464944649444,25.82346863468635,-60.80409594095941,-581.669778597786
3.0,2024-05-10 14:35:54.684621824,2.78,-2.14,-0.4,69.75999999999999,-161.25,-605.47
3.0,2024-05-10 14:35:54.695096832,2.78,-2.14,-0.4,69.76,-161.25,-605.47
3.0,2024-05-10 14:35:54.705285632,2.78,-2.14,-0.4,69.76,-161.25,-605.47
3.0,2024-05-10 14:35:54.715448832,2.78,-1.9911627906976745,-0.45581395348837206,30.189302325581398,-180.73267441860466,-586.0882170542636
3.0,2024-05-10 14:35:54.724950784,2.78,-1.9,-0.49,-4.76,-197.93999999999997,-568.97
3.0,2024-05-10 14:35:54.734987520,2.78,-1.9,-0.48999999999999994,-4.76,-197.94,-568.97
3.0,2024-05-10 14:35:54.745296896,2.78,-1.9,-0.49,-4.76,-197.94,-568.97
3.0,2024-05-10 14:35:54.755356928,2.8776425855513303,-1.7616730038022814,-0.6201901140684412,-21.732205323193917,-278.0087072243346,-538.6802661596959
3.0,2024-05-10 14:35:54.765366272,2.9,-1.73,-0.65,-28.63,-310.55,-526.37
3.0,2024-05-10 14:35:54.774826240,2.9,-1.73,-0.65,-28.63,-310.55,-526.37
3.0,2024-05-10 14:35:54.784599040,2.9,-1.73,-0.65,-28.63,-310.55,-526.37
3.0,2024-05-10 14:35:54.794719232,3.575568181818182,-1.2407954545454545,-1.0848484848484847,-112.50367424242424,-350.6263257575758,-512.4669696969697
3.0,2024-05-10 14:35:54.804873472,3.77,-1.1,-1.21,-148.32,-367.74,-506.5299999999999
3.0,2024-05-10 14:35:54.815217152,3.77,-1.1,-1.21,-148.32,-367.74,-506.5299999999999
3.0,2024-05-10 14:35:54.825328128,3.77,-1.1,-1.21,-148.32,-367.74,-506.53
3.0,2024-05-10 14:35:54.835409408,3.4876029962546813,-1.4797752808988764,-1.8819101123595505,-227.1379775280899,-273.5562172284644,-442.670786516854
3.0,2024-05-10 14:35:54.845045248,3.48,-1.49,-1.9,-233.52,-265.93,-437.5
3.0,2024-05-10 14:35:54.854493952,3.4799999999999995,-1.4899999999999998,-1.9,-233.52,-265.93,-437.5
3.0,2024-05-10 14:35:54.865273600,3.225108225108225,-1.6333766233766234,-1.7785281385281384,-233.52,-265.93,-437.5
3.0,2024-05-10 14:35:54.875248640,2.2,-2.21,-1.29,-320.8257777777778,-358.01711111111115,-441.02
3.0,2024-05-10 14:35:54.885037568,2.2,-2.21,-1.29,-322.81,-360.11,-441.1
3.0,2024-05-10 14:35:54.894962176,2.2,-2.21,-1.29,-322.81,-360.11,-441.1
3.0,2024-05-10 14:35:54.904961536,1.8428685258964146,-2.5466932270916334,-0.8005577689243029,-322.81,-360.11,-441.1
3.0,2024-05-10 14:35:54.914871296,-1.12,-5.34,3.26,-354.19517786561266,-317.3754150197629,-290.5557312252964
3.0,2024-05-10 14:35:54.925017088,-1.12,-5.34,3.26,-355.22,-315.98,-285.64
3.0,2024-05-10 14:35:54.935364352,-1.12,-5.34,3.26,-355.22,-315.98,-285.64
3.0,2024-05-10 14:35:54.945011712,-1.6629268292682926,-5.753658536585365,4.699186991869919,-331.3053658536586,-298.1312195121951,-249.82292682926828
3.0,2024-05-10 14:35:54.954919168,-2.38,-6.3,6.6,-159.12,-169.62,8.06
3.0,2024-05-10 14:35:54.965021184,-2.38,-6.3,6.6,-159.12,-169.62,8.06
3.0,2024-05-10 14:35:54.974805504,-2.38,-6.3,6.6,-159.12,-169.62,8.06
3.0,2024-05-10 14:35:54.984631552,-1.4458555133079847,-5.562813688212928,5.176273764258554,77.28623574144487,8.020608365019012,100.46121673003802
3.0,2024-05-10 14:35:54.994793984,-0.72,-4.99,4.07,342.29,207.15,204.04
3.0,2024-05-10 14:35:55.004889088,-0.72,-4.99,4.07,342.29,207.15,204.04
3.0,2024-05-10 14:35:55.015084800,-0.72,-4.99,4.07,342.29,207.15,204.04
3.0,2024-05-10 14:35:55.024916224,1.083515625,-4.14390625,0.7672656250000001,450.672265625,340.9564453125,282.7384375
3.0,2024-05-10 14:35:55.035207936,1.71,-3.85,-0.38,512.51,417.3,327.64
3.0,2024-05-10 14:35:55.044901888,1.71,-3.85,-0.38,512.51,417.3,327.64
3.0,2024-05-10 14:35:55.054816768,1.71,-3.85,-0.38,512.51,417.3,327.64
3.0,2024-05-10 14:35:55.065466368,3.29579766536965,-2.763968871595331,-2.302178988326848,514.170700389105,313.9591439688716,338.6006225680934
3.0,2024-05-10 14:35:55.075574272,3.36,-2.72,-2.38,514.71,280.4,342.16
3.0,2024-05-10 14:35:55.085303808,3.36,-2.72,-2.38,514.71,280.4,342.16
3.0,2024-05-10 14:35:55.095312384,3.36,-2.72,-2.38,514.71,280.4,342.16
3.0,2024-05-10 14:35:55.105037312,3.4376264591439685,-2.373268482490272,-1.9038910505836575,411.73591439688715,364.8575875486381,351.8891828793775
3.0,2024-05-10 14:35:55.114857984,3.51,-2.05,-1.46,315.73,443.6,360.96
3.0,2024-05-10 14:35:55.124973312,3.5100000000000002,-2.05,-1.4599999999999997,315.73,443.6,360.96
3.0,2024-05-10 14:35:55.134796032,3.3243750000000003,-2.0247916666666668,-1.576875,293.48516666666666,444.88216666666665,374.176
3.0,2024-05-10 14:35:55.145107456,2.7,-1.9399999999999997,-1.9700000000000002,125.06,454.59,474.24
3.0,2024-05-10 14:35:55.155483392,2.7,-1.94,-1.97,125.06,454.59,474.24
3.0,2024-05-10 14:35:55.165027584,2.7,-1.94,-1.9700000000000002,125.06,454.59,474.24
3.0,2024-05-10 14:35:55.174499584,2.71046511627907,-1.9406976744186046,-1.9072093023255814,129.435503875969,440.63806201550386,470.9017054263566
3.0,2024-05-10 14:35:55.184650752,3.0,-1.96,-0.17,266.17,4.64,366.58
3.0,2024-05-10 14:35:55.194888960,3.0,-1.96,-0.17,266.17,4.64,366.58
3.0,2024-05-10 14:35:55.205048320,3.0,-1.96,-0.17,266.17,4.64,366.58
3.0,2024-05-10 14:35:55.215233024,3.0610588235294114,-1.892156862745098,-0.30568627450980396,224.74317647058825,104.17882352941177,405.6425882352941
3.0,2024-05-10 14:35:55.225286400,3.09,-1.86,-0.37,156.13,269.04,470.34
3.0,2024-05-10 14:35:55.235544576,3.09,-1.86,-0.37,156.13,269.04,470.34
3.0,2024-05-10 14:35:55.245126912,3.09,-1.86,-0.37,156.13,269.04,470.34
3.0,2024-05-10 14:35:55.255156224,2.8025670498084287,-1.943448275862069,-0.46272030651340995,204.3183908045977,237.90172413793107,486.9789655172414
3.0,2024-05-10 14:35:55.265309440,2.78,-1.95,-0.47,213.56,231.93,490.17
3.0,2024-05-10 14:35:55.275151872,2.78,-1.95,-0.47,213.56000000000003,231.93,490.17
3.0,2024-05-10 14:35:55.285222144,2.78,-1.9500000000000002,-0.47,213.56,231.93,490.17
3.0,2024-05-10 14:35:55.295138048,2.6700000000000004,-1.67,-0.51,167.02823529411765,239.81168067226892,425.519243697479
3.0,2024-05-10 14:35:55.304744192,2.67,-1.67,-0.51,155.88,241.7,410.03
3.0,2024-05-10 14:35:55.314697472,2.67,-1.67,-0.51,155.88,241.7,410.03
3.0,2024-05-10 14:35:55.325001984,2.7599209486166005,-1.7350197628458497,-0.46988142292490115,151.62166007905137,243.63233201581025,411.02604743083003
3.0,2024-05-10 14:35:55.334802176,3.32,-2.14,-0.22,-23.68,323.18,452.03
3.0,2024-05-10 14:35:55.344531456,3.32,-2.14,-0.22,-23.68,323.18,452.03
3.0,2024-05-10 14:35:55.354731776,3.32,-2.14,-0.22,-23.68,323.18,452.03
3.0,2024-05-10 14:35:55.364903680,3.5219847328244276,-2.208702290076336,-0.4261068702290076,-34.785152671755725,318.01015267175575,442.88057251908396
3.0,2024-05-10 14:35:55.374934528,4.79,-2.64,-1.72,-106.81,284.48,383.54
3.0,2024-05-10 14:35:55.384874496,4.789999999999999,-2.64,-1.72,-106.81,284.48,383.54
3.0,2024-05-10 14:35:55.394616064,4.79,-2.64,-1.72,-106.81,284.48,383.54
3.0,2024-05-10 14:35:55.405414912,5.920000000000001,-0.9818007662835249,-2.1269731800766283,-106.13229885057471,227.29348659003833,323.9461302681992
3.0,2024-05-10 14:35:55.415641600,7.4,1.19,-2.6600000000000006,-104.8,114.87000000000002,206.79
3.0,2024-05-10 14:35:55.425027328,7.4,1.19,-2.66,-104.8,114.87,206.79
3.0,2024-05-10 14:35:55.435385088,7.4,1.19,-2.66,-104.8,114.87,206.79
3.0,2024-05-10 14:35:55.445186048,7.026666666666666,1.0566666666666666,-2.5200000000000005,-127.08916666666666,103.93833333333333,69.57249999999999
3.0,2024-05-10 14:35:55.454631424,6.84,0.99,-2.45,-143.01,96.13,-28.44
3.0,2024-05-10 14:35:55.465199872,6.84,0.99,-2.45,-143.01,96.13,-28.44
3.0,2024-05-10 14:35:55.475358208,6.84,0.9900000000000001,-2.45,-143.01,96.13,-28.44
3.0,2024-05-10 14:35:55.485076992,5.46928870292887,0.3780753138075314,-1.364853556485356,-90.04460251046025,22.36694560669456,-214.90937238493726
3.0,2024-05-10 14:35:55.494612224,5.16,0.24,-1.12,-51.94,-30.7,-349.06
3.0,2024-05-10 14:35:55.504998656,5.16,0.23999999999999996,-1.12,-51.94,-30.699999999999996,-349.06
3.0,2024-05-10 14:35:55.515065856,5.159999999999999,0.24,-1.12,-51.94,-30.7,-349.06
3.0,2024-05-10 14:35:55.524746240,4.467716535433071,-0.1568503937007874,-0.9480314960629922,-35.68677165354331,-28.949448818897636,-416.3173228346456
3.0,2024-05-10 14:35:55.534668800,3.59,-0.66,-0.73,-15.08,-26.73,-501.59
3.0,2024-05-10 14:35:55.544575488,3.59,-0.66,-0.73,-15.08,-26.73,-501.59
3.0,2024-05-10 14:35:55.554954496,3.501698113207547,-0.7718490566037736,-0.794754716981132,-18.388264150943396,-28.65158490566038,-505.227358490566
3.0,2024-05-10 14:35:55.565042176,3.14,-1.23,-1.06,-47.55,-45.59,-537.29
3.0,2024-05-10 14:35:55.575232768,3.14,-1.23,-1.06,-47.55,-45.59,-537.29
3.0,2024-05-10 14:35:55.585281024,3.14,-1.23,-1.06,-47.55,-45.59,-537.29
3.0,2024-05-10 14:35:55.595126528,3.14,-1.5013934426229507,-1.0564754098360658,-53.0014344262295,-57.983483606557385,-544.4261475409835
3.0,2024-05-10 14:35:55.604959488,3.14,-2.0,-1.05,-83.5,-127.32000000000001,-584.35
3.0,2024-05-10 14:35:55.614909440,3.14,-2.0,-1.05,-83.5,-127.32,-584.35
3.0,2024-05-10 14:35:55.624662272,3.14,-2.0,-1.05,-83.5,-127.32,-584.35
3.0,2024-05-10 14:35:55.634697728,3.14,-2.0,-1.05,-83.5,-127.32,-584.35
3.0,2024-05-10 14:35:55.644631808,3.14,-2.0,-1.05,-83.5,-127.32000000000001,-584.35
3.0,2024-05-10 14:35:55.654809344,3.14,-2.0,-1.05,-83.5,-127.32,-584.35
3.0,2024-05-10 14:35:55.664572672,3.14,-2.0,-1.05,-83.5,-127.32,-584.35
3.0,2024-05-10 14:35:55.674718720,2.7789830508474576,-1.9934322033898304,-1.0704661016949153,-111.36991525423728,-138.08906779661018,-537.2182203389831
3.0,2024-05-10 14:35:55.685171712,2.64,-1.99,-1.08,-122.19,-142.27,-518.92
3.0,2024-05-10 14:35:55.694893312,2.64,-1.99,-1.08,-122.19,-142.27,-518.92
3.0,2024-05-10 14:35:55.705311488,2.686641791044776,-1.9713432835820892,-1.1098507462686567,-116.20145522388059,-154.90996268656718,-518.1933208955223
3.0,2024-05-10 14:35:55.715227648,2.89,-1.89,-1.24,-37.72,-320.56,-508.67
3.0,2024-05-10 14:35:55.724724480,2.89,-1.89,-1.24,-37.72,-320.56,-508.6700000000001
3.0,2024-05-10 14:35:55.734721280,2.89,-1.89,-1.24,-37.72,-320.56,-508.67
3.0,2024-05-10 14:35:55.744800256,2.89,-1.89,-1.24,-37.72,-320.56,-508.67
3.0,2024-05-10 14:35:55.754488832,2.89,-1.89,-1.24,-37.72,-320.56,-508.6700000000001
3.0,2024-05-10 14:35:55.764745984,2.89,-1.8899999999999997,-1.24,-37.72,-320.56,-508.67
3.0,2024-05-10 14:35:55.775352064,2.89,-1.89,-1.24,-37.72,-320.56,-508.66999999999996
3.0,2024-05-10 14:35:55.785320448,2.89,-1.89,-1.24,-37.72,-320.56,-508.67
3.0,2024-05-10 14:35:55.794836992,2.929054054054054,-1.752162162162162,-1.3732432432432433,-59.08945945945946,-339.82513513513516,-495.6443243243244
3.0,2024-05-10 14:35:55.804646144,3.061716738197425,-1.2896995708154506,-1.8202145922746782,-130.79158798283262,-404.8150214592275,-451.759356223176
3.0,2024-05-10 14:35:55.814638080,3.46,-1.22,-1.87,-142.76,-496.46,-402.89
3.0,2024-05-10 14:35:55.824900096,2.785923076923077,-1.7182307692307692,-2.475692307692308,-207.59342307692307,-507.0468461538461,-286.8838846153846
3.0,2024-05-10 14:35:55.834840064,2.77,-1.73,-2.49,-216.37,-508.47999999999996,-271.18
3.0,2024-05-10 14:35:55.844670976,2.77,-1.73,-2.49,-216.37,-508.48,-271.18
3.0,2024-05-10 14:35:55.854902272,2.77,-1.73,-2.49,-216.37,-508.47999999999996,-271.18
3.0,2024-05-10 14:35:55.865022464,2.199108527131783,-3.137829457364341,0.08178294573643397,-454.9361240310077,-428.206007751938,-203.8924031007752
3.0,2024-05-10 14:35:55.875134464,1.74,-4.27,2.15,-646.79,-363.65,-149.78
3.0,2024-05-10 14:35:55.885270784,1.74,-4.27,2.15,-646.79,-363.65,-149.78
3.0,2024-05-10 14:35:55.894982400,0.8551476793248945,-4.894767932489451,3.4673839662447254,-587.2448101265823,-293.1982278481012,-120.9982700421941
3.0,2024-05-10 14:35:55.904957184,-1.39,-6.48,6.81,-436.16,-114.44,-47.97
3.0,2024-05-10 14:35:55.914826240,-1.39,-6.48,6.81,-436.16,-114.44,-47.97
3.0,2024-05-10 14:35:55.925126656,-1.39,-6.48,6.81,-436.16,-114.44,-47.97
3.0,2024-05-10 14:35:55.934860800,-1.39,-6.48,6.81,-436.16,-114.44,-47.97
3.0,2024-05-10 14:35:55.944615424,-1.39,-6.48,6.81,-436.16,-114.44,-47.97
3.0,2024-05-10 14:35:55.954464768,-1.39,-6.48,6.81,-436.16,-114.44,-47.97
3.0,2024-05-10 14:35:55.964781568,-0.7459842519685039,-6.0748818897637795,6.102125984251969,-161.8457874015748,46.72874015748032,48.2653937007874
3.0,2024-05-10 14:35:55.975288320,1.22,-4.12,1.12,520.775962264151,453.2184150943396,211.60905660377355
3.0,2024-05-10 14:35:55.985187584,1.22,-4.12,1.12,531.37,459.59,213.26
3.0,2024-05-10 14:35:55.995345920,1.22,-4.12,1.12,531.37,459.59,213.26
3.0,2024-05-10 14:35:56.005437696,1.22,-4.12,1.12,531.37,459.59,213.26
3.0,2024-05-10 14:35:56.015391744,3.2067489711934156,-3.1561316872427985,-2.6862962962962964,447.9855555555555,473.1628395061728,312.4302469135802
3.0,2024-05-10 14:35:56.024954880,3.24,-3.14,-2.75,446.59,473.39,314.09
3.0,2024-05-10 14:35:56.034993408,3.24,-3.14,-2.75,446.59,473.39,314.09
3.0,2024-05-10 14:35:56.044952320,3.24,-3.14,-2.75,446.59,473.39,314.09
3.0,2024-05-10 14:35:56.055196672,3.24,-3.14,-2.75,446.59,473.39,314.09
3.0,2024-05-10 14:35:56.065129728,3.24,-3.14,-2.75,446.59,473.39,314.09
3.0,2024-05-10 14:35:56.075487232,3.682629482071713,-2.3110756972111552,-2.299322709163347,451.16115537848606,466.4608366533864,314.3314342629482
3.0,2024-05-10 14:35:56.085591552,3.411930501930502,-1.6374131274131274,-1.7095366795366798,187.5285714285714,657.402471042471,453.12656370656373
3.0,2024-05-10 14:35:56.095396864,3.31,-1.51,-1.58,64.88,746.64,517.4
3.0,2024-05-10 14:35:56.105451520,3.31,-1.51,-1.58,64.88,746.64,517.4
3.0,2024-05-10 14:35:56.115054080,3.31,-1.51,-1.58,64.88,746.64,517.4
3.0,2024-05-10 14:35:56.124646144,2.4022047244094487,-1.625275590551181,-0.9820078740157481,191.82748031496064,246.80515748031496,412.179094488189
3.0,2024-05-10 14:35:56.134752000,2.05,-1.67,-0.75,270.26,-62.00999999999999,347.17
3.0,2024-05-10 14:35:56.144760832,2.05,-1.67,-0.75,270.26,-62.01,347.17
3.0,2024-05-10 14:35:56.154807808,2.05,-1.67,-0.75,270.26,-62.01,347.17
3.0,2024-05-10 14:35:56.164855296,2.5258260869565214,-1.6204347826086958,0.46930434782608693,275.3639565217391,2.0158260869565243,320.33843478260866
3.0,2024-05-10 14:35:56.174932480,2.53,-1.62,0.4799999999999999,283.45,103.45,277.83
3.0,2024-05-10 14:35:56.184819712,2.53,-1.62,0.48,283.45,103.45,277.83
3.0,2024-05-10 14:35:56.194755328,2.502081632653061,-1.6440408163265308,0.41873469387755097,283.45,103.45,277.83
3.0,2024-05-10 14:35:56.205025536,2.17,-1.93,-0.31,241.7609727626459,289.6829961089494,337.078093385214
3.0,2024-05-10 14:35:56.215121152,2.17,-1.9299999999999997,-0.31,230.41,340.39,353.21
3.0,2024-05-10 14:35:56.224939008,2.17,-1.93,-0.31,230.41000000000003,340.39,353.21
3.0,2024-05-10 14:35:56.234636544,2.1932727272727273,-1.9881818181818183,-0.3332727272727272,227.8716,332.9516727272727,356.71014545454545
3.0,2024-05-10 14:35:56.245078016,2.27,-2.18,-0.41,212.04,286.56,378.54
3.0,2024-05-10 14:35:56.254932736,2.27,-2.18,-0.41,212.04,286.56,378.54
3.0,2024-05-10 14:35:56.264875264,2.27,-2.18,-0.41,212.04,286.56,378.54
3.0,2024-05-10 14:35:56.275337984,2.801764705882353,-2.3882745098039218,-0.27705882352941175,144.5075294117647,318.60670588235297,418.87729411764707
3.0,2024-05-10 14:35:56.285132288,3.47,-2.65,-0.10999999999999999,14.1,380.49,496.77
3.0,2024-05-10 14:35:56.294688000,3.47,-2.65,-0.11,14.1,380.49,496.77
3.0,2024-05-10 14:35:56.304972288,3.47,-2.65,-0.11,14.1,380.49,496.77
3.0,2024-05-10 14:35:56.315283456,4.247426470588235,-3.2919117647058824,-0.03867647058823529,-128.4148529411765,377.2666544117647,507.5943014705882
3.0,2024-05-10 14:35:56.325228544,4.56,-3.55,-0.01,-218.02,375.24,514.4
3.0,2024-05-10 14:35:56.335160320,4.56,-3.55,-0.01,-218.02,375.24,514.4
3.0,2024-05-10 14:35:56.344835840,4.56,-3.55,-0.01,-218.02,375.24,514.4
3.0,2024-05-10 14:35:56.355221248,6.19725,-1.3754285714285714,-2.0265357142857146,-35.795964285714284,244.70907142857146,406.77925
3.0,2024-05-10 14:35:56.365049088,7.15,-0.11,-3.2,149.05,112.3,297.61
3.0,2024-05-10 14:35:56.374829056,7.15,-0.11,-3.2,149.05,112.3,297.61
3.0,2024-05-10 14:35:56.385166336,7.158713692946058,-0.1108298755186722,-3.2045643153526973,149.05,112.3,297.61
3.0,2024-05-10 14:35:56.394768640,7.57,-0.15,-3.42,-37.518793774319064,215.37688715953306,141.62762645914395
3.0,2024-05-10 14:35:56.404665088,7.57,-0.15,-3.42,-51.57,223.14,129.88
3.0,2024-05-10 14:35:56.414544384,7.57,-0.15,-3.42,-51.57,223.14,129.88
3.0,2024-05-10 14:35:56.424368128,7.31113537117904,-0.09864628820960698,-3.2009606986899564,-53.064497816593885,220.69336244541483,123.64248908296942
3.0,2024-05-10 14:35:56.435007488,5.1,0.34,-1.33,-165.65,36.38,-346.25
3.0,2024-05-10 14:35:56.445161728,5.1,0.34,-1.33,-165.65,36.38,-346.25
3.0,2024-05-10 14:35:56.455148800,5.1,0.34,-1.33,-165.65,36.38,-346.25
3.0,2024-05-10 14:35:56.464989440,4.694453781512605,0.19949579831932776,-1.1767226890756302,-129.7503361344538,28.00537815126051,-364.45436974789914
3.0,2024-05-10 14:35:56.475227904,3.83,-0.1,-0.85,-1.34,-1.95,-429.57
3.0,2024-05-10 14:35:56.484910848,3.83,-0.1,-0.85,-1.34,-1.95,-429.57
3.0,2024-05-10 14:35:56.494711808,3.83,-0.1,-0.85,-1.34,-1.95,-429.57
3.0,2024-05-10 14:35:56.505060864,3.4094795539033456,-0.47171003717472126,-0.8537546468401487,-2.451003717472119,-23.381375464684016,-454.7268401486989
3.0,2024-05-10 14:35:56.514928128,2.7099999999999995,-1.09,-0.86,-7.2,-114.99,-562.2599999999999
3.0,2024-05-10 14:35:56.524528640,2.71,-1.09,-0.86,-7.2,-114.99,-562.26
3.0,2024-05-10 14:35:56.534945536,2.71,-1.09,-0.86,-7.2,-114.99,-562.26
3.0,2024-05-10 14:35:56.544937984,2.71,-1.09,-0.86,-7.2,-114.99,-562.26
3.0,2024-05-10 14:35:56.554966016,2.7373600000000002,-1.56424,-0.8144000000000001,-83.51615999999999,-212.29128,-513.0484799999999
3.0,2024-05-10 14:35:56.564940032,2.74,-1.61,-0.81,-90.88,-221.68,-508.30000000000007
3.0,2024-05-10 14:35:56.575070976,2.74,-1.61,-0.81,-90.88,-221.68,-508.3
3.0,2024-05-10 14:35:56.585109248,2.685,-1.7016666666666667,-0.8527777777777777,-108.57185185185185,-252.76,-507.09703703703707
3.0,2024-05-10 14:35:56.595286784,2.65,-1.76,-0.88,-125.0,-281.62,-505.98
3.0,2024-05-10 14:35:56.605601792,2.65,-1.76,-0.88,-125.0,-281.62,-505.98
3.0,2024-05-10 14:35:56.615333632,2.65,-1.76,-0.88,-125.0,-281.62,-505.98
3.0,2024-05-10 14:35:56.624936448,2.799,-1.8230384615384616,-0.9545,-159.47784615384614,-251.76411538461537,-470.60803846153846
3.0,2024-05-10 14:35:56.634999040,2.91,-1.87,-1.01,-197.88,-218.51,-431.21
3.0,2024-05-10 14:35:56.644944640,2.91,-1.87,-1.01,-197.88,-218.51,-431.21
3.0,2024-05-10 14:35:56.655039744,2.91,-1.87,-1.01,-197.88,-218.51,-431.21
3.0,2024-05-10 14:35:56.664850944,2.866611570247934,-1.7615289256198348,-1.313719008264463,-208.04185950413222,-241.85644628099175,-440.0693388429752
3.0,2024-05-10 14:35:56.674105088,2.85,-1.7200000000000002,-1.43,-216.37,-260.99,-447.33
3.0,2024-05-10 14:35:56.684633088,2.8500000000000005,-1.72,-1.43,-216.37,-260.99,-447.33
3.0,2024-05-10 14:35:56.694598144,2.85,-1.72,-1.43,-216.37,-260.99,-447.33
3.0,2024-05-10 14:35:56.705009408,3.0126953125,-1.5955859375,-1.755390625,-218.9060546875,-294.0058203125,-410.52187499999997
3.0,2024-05-10 14:35:56.715089408,3.02,-1.59,-1.77,-219.6,-303.04,-400.45
3.0,2024-05-10 14:35:56.725083904,3.02,-1.59,-1.77,-219.6,-303.04,-400.45
3.0,2024-05-10 14:35:56.735245824,3.0248770491803283,-1.5920901639344263,-1.7957786885245903,-219.6,-303.04,-400.45
3.0,2024-05-10 14:35:56.745238784,3.09,-1.62,-2.14,-329.08483146067414,-285.0043071161049,-370.1508239700375
3.0,2024-05-10 14:35:56.754946304,3.09,-1.62,-2.14,-330.75,-284.73,-369.69
3.0,2024-05-10 14:35:56.764515072,3.09,-1.62,-2.14,-330.75,-284.73,-369.69
3.0,2024-05-10 14:35:56.774454272,3.0459022556390973,-1.6244736842105263,-2.113796992481203,-330.75,-284.73,-369.69
3.0,2024-05-10 14:35:56.784804608,2.4,-1.69,-1.73,-376.2216796875,-258.54609375,-329.324765625
3.0,2024-05-10 14:35:56.794680064,2.4,-1.69,-1.73,-377.5,-257.81,-328.19
3.0,2024-05-10 14:35:56.805203712,2.4,-1.69,-1.73,-377.5,-257.81,-328.19
3.0,2024-05-10 14:35:56.814728704,2.329350649350649,-1.8396103896103895,-1.542987012987013,-384.6648484848485,-261.559696969697,-333.9390043290043
3.0,2024-05-10 14:35:56.824861184,1.72,-3.13,0.07,-449.46,-295.47,-385.93
3.0,2024-05-10 14:35:56.835117312,1.72,-3.13,0.07,-449.46,-295.47,-385.93
3.0,2024-05-10 14:35:56.845059328,1.72,-3.13,0.07,-449.46,-295.47,-385.93
3.0,2024-05-10 14:35:56.855060224,1.72,-3.13,0.07,-449.46,-295.47,-385.93
3.0,2024-05-10 14:35:56.865286912,1.72,-3.13,0.07,-449.46,-295.47,-385.93
3.0,2024-05-10 14:35:56.875270656,1.72,-3.13,0.07,-449.46,-295.47,-385.93
3.0,2024-05-10 14:35:56.885106944,1.72,-3.13,0.07,-449.46,-295.47,-385.93
3.0,2024-05-10 14:35:56.894889472,1.72,-3.13,0.06999999999999999,-449.46,-295.46999999999997,-385.93
3.0,2024-05-10 14:35:56.904954112,1.72,-3.13,0.07,-449.46,-295.47,-385.93
3.0,2024-05-10 14:35:56.914986240,1.72,-3.13,0.07,-449.46,-295.47,-385.93
3.0,2024-05-10 14:35:56.924999936,1.72,-3.13,0.07,-449.46,-295.47,-385.93
3.0,2024-05-10 14:35:56.934995712,1.4270781893004114,-3.6424279835390947,0.41489711934156376,-180.45489711934158,-80.05222222222224,-202.7711111111111
3.0,2024-05-10 14:35:56.945211904,0.7599999999999999,-4.82,1.17,473.14,442.38000000000005,238.59
3.0,2024-05-10 14:35:56.955401216,0.76,-4.82,1.17,473.14,442.38,238.59
3.0,2024-05-10 14:35:56.965152768,2.2579746835443038,-3.877974683544304,-1.6406329113924052,482.146329113924,461.62050632911394,298.2292405063291
3.0,2024-05-10 14:35:56.975159808,2.7,-3.6,-2.47,487.37,472.78,332.82
3.0,2024-05-10 14:35:56.985149440,2.7,-3.6,-2.47,487.37,472.78,332.82
3.0,2024-05-10 14:35:56.995510272,2.8182330827067674,-3.424736842105263,-2.4880827067669173,487.3763157894737,471.7052631578947,334.03533834586466
3.0,2024-05-10 14:35:57.005094400,3.55,-2.34,-2.6,487.79,401.31,413.64
3.0,2024-05-10 14:35:57.014683904,3.55,-2.34,-2.6,487.79,401.31,413.64
3.0,2024-05-10 14:35:57.024954112,3.55,-2.34,-2.6,487.79,401.31,413.64
3.0,2024-05-10 14:35:57.035130368,3.76796875,-2.0978125,-2.369921875,487.79,401.31,413.64
3.0,2024-05-10 14:35:57.044921344,4.45,-1.34,-1.65,230.4966393442623,711.4048360655738,606.1029508196721
3.0,2024-05-10 14:35:57.055130112,4.45,-1.34,-1.65,177.0,775.88,646.12
3.0,2024-05-10 14:35:57.065168896,4.45,-1.34,-1.65,177.0,775.88,646.12
3.0,2024-05-10 14:35:57.074749184,3.4778884462151396,-1.34,-1.3392430278884462,113.35410358565737,651.8607171314742,598.9929083665339
3.0,2024-05-10 14:35:57.085008896,2.01,-1.34,-0.87,-38.88,355.22,486.27
3.0,2024-05-10 14:35:57.095237632,2.01,-1.34,-0.87,-38.88,355.22,486.27
3.0,2024-05-10 14:35:57.105360384,2.01,-1.34,-0.87,-38.88,355.22,486.27
3.0,2024-05-10 14:35:57.115289088,2.008783269961977,-1.3457794676806083,-0.8529657794676807,-36.68836501901141,350.5173384030419,484.258288973384
3.0,2024-05-10 14:35:57.125225216,1.93,-1.72,0.25,105.22,46.02,354.0
3.0,2024-05-10 14:35:57.135570688,1.93,-1.72,0.25,105.22,46.02,354.0
3.0,2024-05-10 14:35:57.145023744,1.9258227848101264,-1.739493670886076,0.24582278481012657,105.22,46.02000000000001,354.0
3.0,2024-05-10 14:35:57.154919168,1.9,-1.86,0.22,105.41511278195487,46.963045112781955,354.5954887218045
3.0,2024-05-10 14:35:57.165113088,1.9,-1.86,0.22,115.6,96.19,385.68
3.0,2024-05-10 14:35:57.175092992,1.9,-1.86,0.22,115.6,96.19,385.68
3.0,2024-05-10 14:35:57.185314304,2.185783582089552,-2.192126865671642,0.01917910447761194,117.08582089552239,110.20399253731343,447.6387313432836
3.0,2024-05-10 14:35:57.194968320,2.27,-2.29,-0.04,117.8,116.94,477.42
3.0,2024-05-10 14:35:57.204851200,2.27,-2.29,-0.04,117.8,116.94,477.42
3.0,2024-05-10 14:35:57.215291136,2.27,-2.29,-0.04,117.8,116.94,477.42
3.0,2024-05-10 14:35:57.225300224,2.599344262295082,-2.0088524590163934,-0.4095081967213115,111.34508196721312,105.42258196721312,482.8974590163935
3.0,2024-05-10 14:35:57.235153920,2.68,-1.94,-0.5,96.8,79.47,495.24
3.0,2024-05-10 14:35:57.244733440,2.68,-1.94,-0.5,96.8,79.47,495.24
3.0,2024-05-10 14:35:57.255023104,2.68,-1.94,-0.5,96.8,79.47,495.24
3.0,2024-05-10 14:35:57.264791040,4.016425855513308,-2.1243346007604567,-0.2926235741444867,-6.053536121673005,183.73920152091253,490.4212927756654
3.0,2024-05-10 14:35:57.275066368,4.42,-2.18,-0.23,-54.32,232.67,488.16
3.0,2024-05-10 14:35:57.284779264,4.42,-2.18,-0.23,-54.32,232.67,488.16
3.0,2024-05-10 14:35:57.294501120,4.42,-2.18,-0.23,-54.32,232.67,488.16
3.0,2024-05-10 14:35:57.304715520,5.973647540983606,-1.3706147540983606,-2.0813524590163937,9.314754098360657,128.78131147540984,354.67819672131145
3.0,2024-05-10 14:35:57.314757376,6.09,-1.31,-2.22,18.92,113.1,334.53
3.0,2024-05-10 14:35:57.324960768,6.09,-1.31,-2.2200000000000006,18.919999999999998,113.1,334.53000000000003
3.0,2024-05-10 14:35:57.334989312,6.089398496240602,-1.2531578947368422,-2.220902255639098,18.92,113.1,334.53
3.0,2024-05-10 14:35:57.345287168,6.07,0.58,-2.25,-100.81693181818183,165.54090909090908,180.08397727272725
3.0,2024-05-10 14:35:57.354895104,6.07,0.58,-2.25,-108.03,168.7,170.78
3.0,2024-05-10 14:35:57.364671488,6.07,0.58,-2.25,-108.03,168.7,170.78
3.0,2024-05-10 14:35:57.375038976,6.110625,0.82375,-2.23578125,-99.352265625,147.9099609375,144.977265625
3.0,2024-05-10 14:35:57.385193728,6.27,1.78,-2.18,-19.17,-44.19,-93.44
3.0,2024-05-10 14:35:57.395042816,6.27,1.78,-2.18,-19.17,-44.19,-93.44
3.0,2024-05-10 14:35:57.404677632,6.27,1.78,-2.18,-19.17,-44.19,-93.44
3.0,2024-05-10 14:35:57.414489088,6.096966292134831,1.70749063670412,-2.0811235955056184,-28.729700374531834,-34.37816479400749,-104.58996254681648
3.0,2024-05-10 14:35:57.424653568,4.17,0.9,-0.98,-135.19,74.89,-228.76
3.0,2024-05-10 14:35:57.434865152,4.17,0.9,-0.9800000000000001,-135.19,74.89,-228.76
3.0,2024-05-10 14:35:57.444982528,4.17,0.9,-0.98,-135.19,74.89,-228.76
3.0,2024-05-10 14:35:57.455170304,3.885285171102662,0.6079847908745247,-0.8668441064638783,-112.09114068441065,48.3645247148289,-276.20106463878324
3.0,2024-05-10 14:35:57.464793600,3.39,0.1,-0.67,-33.94,-41.38,-436.71
3.0,2024-05-10 14:35:57.474947840,3.3899999999999997,0.1,-0.67,-33.94,-41.38,-436.71
3.0,2024-05-10 14:35:57.484924416,3.39,0.1,-0.67,-33.94,-41.38,-436.71
3.0,2024-05-10 14:35:57.494757376,3.2384848484848487,-0.41406926406926403,-0.7674025974025974,-52.0748051948052,-33.564415584415585,-467.4866233766234
3.0,2024-05-10 14:35:57.504530432,3.11,-0.85,-0.85,-75.01,-23.68,-506.41
3.0,2024-05-10 14:35:57.515019776,3.11,-0.85,-0.85,-75.01,-23.68,-506.4100000000001
3.0,2024-05-10 14:35:57.525078784,3.11,-0.85,-0.85,-75.01,-23.68,-506.41
3.0,2024-05-10 14:35:57.535188736,3.370590405904059,-1.300110701107011,-0.7157564575645756,-107.44099630996311,-54.52870848708487,-525.1140590405904
3.0,2024-05-10 14:35:57.545468416,3.44,-1.42,-0.68,-129.94,-75.93,-538.09
3.0,2024-05-10 14:35:57.554805504,3.44,-1.42,-0.68,-129.94,-75.93,-538.09
3.0,2024-05-10 14:35:57.564683520,3.44,-1.42,-0.68,-129.94,-75.93,-538.09
3.0,2024-05-10 14:35:57.574728960,3.3747692307692305,-1.795076923076923,-0.8919999999999999,-103.20061538461539,-100.29046153846154,-583.1449230769231
3.0,2024-05-10 14:35:57.584587520,3.36,-1.88,-0.94,-92.96,-109.62,-600.4
3.0,2024-05-10 14:35:57.595047424,3.36,-1.88,-0.94,-92.96,-109.62,-600.4
3.0,2024-05-10 14:35:57.605072896,3.36,-1.88,-0.94,-92.96,-109.62,-600.4
3.0,2024-05-10 14:35:57.614907648,3.506739130434782,-2.01695652173913,-1.1943478260869564,-120.67601449275362,-166.3497101449275,-612.2807971014493
3.0,2024-05-10 14:35:57.625289216,3.51,-2.02,-1.2,-124.57,-174.32,-613.95
3.0,2024-05-10 14:35:57.635227136,3.51,-2.02,-1.2,-124.57,-174.32,-613.95
3.0,2024-05-10 14:35:57.645384192,3.51,-2.02,-1.2,-124.57,-174.32,-613.95
3.0,2024-05-10 14:35:57.655562752,3.4016988416988414,-2.059382239382239,-1.9187258687258686,-150.32594594594593,-204.45706563706563,-569.3111583011583
3.0,2024-05-10 14:35:57.665474816,3.4,-2.06,-1.93,-153.2,-207.82,-564.33
3.0,2024-05-10 14:35:57.674480640,3.3999999999999995,-2.06,-1.93,-153.2,-207.82,-564.33
,,,,,,,
,,,,,,,
3.0,2024-05-10 14:35:57.704833280,4.34,-1.36,-2.33,-260.2568503937008,-305.5835826771654,-595.3972047244093
3.0,2024-05-10 14:35:57.714788352,4.34,-1.36,-2.33,-260.68,-305.97,-595.52
3.0,2024-05-10 14:35:57.724602880,4.1979411764705885,-1.4341176470588235,-2.1591176470588236,-271.0494117647059,-288.9088235294118,-591.8152941176471
3.0,2024-05-10 14:35:57.735079168,3.65,-1.72,-1.5,-348.82,-160.95,-564.03
3.0,2024-05-10 14:35:57.745431808,3.65,-1.72,-1.5,-348.82,-160.95,-564.0299999999999
3.0,2024-05-10 14:35:57.754251008,3.65,-1.72,-1.5,-348.82,-160.95,-564.03
