id,timestamp,acc_x,acc_y,acc_z,gyro_x,gyro_y,gyro_z
0,1715781887550,-0.2285714285714286,0.9400000000000001,-0.17142857142857143,-0.8639285714285714,21.539285714285715,99.45553571428572
1,1715781887560,-0.16,0.9,-0.16,-14.83,7.75,124.51
2,1715781887570,-0.16,0.9,-0.16,-14.83,7.75,124.51000000000002
3,1715781887580,-0.16,0.9,-0.16,-14.83,7.75,124.50999999999999
4,1715781887590,-0.12665217391304348,0.8769130434782608,-0.15743478260869564,-17.199478260869565,4.352130434782609,126.27834782608696
5,1715781887600,-0.03,0.81,-0.15,-32.41,-17.46,137.63
6,1715781887610,-0.03,0.81,-0.15,-32.41,-17.46,137.63
7,1715781887620,-0.03,0.81,-0.15,-32.41,-17.46,137.63
8,1715781887630,0.0092578125,0.7759765625,-0.1369140625,-32.0672265625,-17.3738671875,141.697578125
9,1715781887640,0.12,0.68,-0.1,-30.46,-16.97,160.77
10,1715781887650,0.11999999999999998,0.68,-0.1,-30.460000000000004,-16.97,160.77
11,1715781887660,0.12,0.68,-0.1,-30.46,-16.97,160.77
12,1715781887670,0.23818181818181816,0.6481818181818182,-0.09545454545454546,-32.21778656126482,-22.136521739130433,161.7295256916996
13,1715781887680,0.38,0.61,-0.09,-39.18,-42.6,165.53
14,1715781887690,0.38,0.61,-0.09,-39.18,-42.6,165.53
15,1715781887700,0.38,0.61,-0.09,-39.18,-42.6,165.53
16,1715781887710,0.4007725321888412,0.558068669527897,-0.0536480686695279,-33.72978540772532,-28.678969957081545,165.26296137339054
17,1715781887720,0.42,0.51,-0.02,-26.73,-10.8,164.92
18,1715781887730,0.42,0.51,-0.02,-26.73,-10.8,164.92
19,1715781887740,0.42,0.51,-0.020000000000000004,-26.730000000000004,-10.8,164.92
20,1715781887750,0.5915625,0.4599609375,-0.005703125,-25.288984375000002,3.9431640625,182.91453124999998
21,1715781887760,0.66,0.44,0.0,-24.35,13.55,194.64
22,1715781887770,0.66,0.44,0.0,-24.35,13.55,194.64
23,1715781887780,0.66,0.44000000000000006,0.0,-24.35,13.55,194.64
24,1715781887790,0.6039669421487603,0.3372727272727273,0.04669421487603306,-17.211487603305788,10.514669421487604,174.86280991735535
25,1715781887800,0.6,0.33,0.05,-14.59,9.4,167.6
26,1715781887810,0.6,0.33,0.05,-14.59,9.4,167.6
27,1715781887820,0.6,0.33,0.05,-14.59,9.4,167.6
28,1715781887830,0.8304832713754647,0.2009293680297398,0.031561338289962826,-17.55583643122677,-33.58167286245353,181.39159851301116
29,1715781887840,0.85,0.19,0.029999999999999995,-17.82,-37.41,182.62
30,1715781887850,0.85,0.19,0.03,-17.82,-37.41,182.62
31,1715781887860,0.8517537313432835,0.19350746268656716,0.03526119402985074,-16.86011194029851,-36.76130597014925,180.7477985074627
32,1715781887870,0.86,0.21,0.06,-0.67,-25.82,149.17
33,1715781887880,0.86,0.21,0.06,-0.67,-25.82,149.17
34,1715781887890,0.86,0.21,0.06,-0.67,-25.82,149.17
35,1715781887900,0.8772765957446809,0.1890212765957447,0.055063829787234043,-1.1859148936170212,-20.62748936170213,152.28217021276595
36,1715781887910,1.0,0.04,0.02,-5.0,17.76,175.29
37,1715781887920,1.0,0.04,0.02,-5.0,17.76,175.29
38,1715781887930,0.8925384615384615,0.044884615384615384,0.005346153846153847,0.6834615384615383,8.705769230769233,172.595
39,1715781887940,0.78,0.05,-0.01,16.11,-15.869999999999997,165.28
40,1715781887950,0.78,0.05,-0.01,16.11,-15.87,165.28
41,1715781887960,0.78,0.05,-0.01,16.11,-15.870000000000001,165.28
42,1715781887970,1.1293181818181817,-0.10159090909090909,-0.01659090909090909,6.287727272727273,1.7365909090909095,160.83102272727274
43,1715781887980,1.31,-0.18,-0.02,-1.53,15.75,157.29
44,1715781887990,1.31,-0.18,-0.02,-1.53,15.75,157.29
45,1715781888000,1.31,-0.18,-0.02,-1.53,15.75,157.29
46,1715781888010,0.9852340425531915,-0.09880851063829786,-0.02,10.23204255319149,23.49587234042553,155.3352765957447
47,1715781888020,0.95,-0.09,-0.02,19.41,29.54,153.81
48,1715781888030,0.95,-0.08999999999999998,-0.02,19.41,29.539999999999996,153.81
49,1715781888040,0.95,-0.09,-0.02,19.41,29.54,153.81
50,1715781888050,1.1872881355932203,-0.24254237288135594,-0.05389830508474576,-9.882457627118646,-10.870762711864407,137.65601694915253
51,1715781888060,1.23,-0.27,-0.06,-20.32,-25.27,131.9
52,1715781888070,1.23,-0.27,-0.06,-20.32,-25.27,131.9
53,1715781888080,1.23,-0.27,-0.06,-20.32,-25.269999999999996,131.9
54,1715781888090,1.1732432432432434,-0.2794594594594595,0.06297297297297298,-6.366988416988418,-23.076061776061774,126.48320463320464
55,1715781888100,1.17,-0.28,0.07,5.31,-21.24,121.95000000000002
56,1715781888110,1.17,-0.28,0.07,5.31,-21.24,121.95
57,1715781888120,1.1750612244897958,-0.2926530612244898,0.04469387755102041,5.280204081632652,-20.336938775510202,122.09204081632653
58,1715781888130,1.19,-0.33,-0.03,3.85,23.01,128.91
59,1715781888140,1.19,-0.33,-0.03,3.85,23.01,128.91
60,1715781888150,1.19,-0.33,-0.03,3.85,23.01,128.91
61,1715781888160,1.153181818181818,-0.3668181818181818,-0.017727272727272727,3.6597727272727276,11.492045454545456,118.87090909090908
62,1715781888170,1.1,-0.42,0.0,3.23,-14.53,96.19
63,1715781888180,1.1,-0.42,0.0,3.23,-14.530000000000001,96.19
64,1715781888190,1.1,-0.42,0.0,3.23,-14.53,96.19
65,1715781888200,1.1551612903225807,-0.4690322580645161,0.018387096774193548,13.009032258064517,10.868387096774194,97.13354838709677
66,1715781888210,1.19,-0.5,0.03,23.44,37.96,98.14
67,1715781888220,1.19,-0.5,0.03,23.44,37.96,98.14
68,1715781888230,1.19,-0.5,0.03,23.44,37.96,98.14
69,1715781888240,1.1058333333333332,-0.5,-0.031212121212121212,4.357575757575758,19.52632575757576,93.3825
70,1715781888250,1.08,-0.5,-0.05,-5.68,9.83,90.88
71,1715781888260,1.08,-0.5,-0.05,-5.68,9.83,90.88
72,1715781888270,1.08,-0.5,-0.05,-5.68,9.83,90.88
73,1715781888280,1.2842857142857143,-0.48142857142857143,0.024285714285714285,3.914166666666667,6.285555555555556,71.26472222222222
74,1715781888290,1.3,-0.48,0.03,6.23,5.43,66.53
75,1715781888300,1.3,-0.48,0.03,6.23,5.43,66.53
76,1715781888310,1.2906976744186047,-0.47627906976744183,0.01511627906976744,6.23,5.43,66.53
77,1715781888320,1.25,-0.46,-0.05,0.6955421686746989,24.25987951807229,56.288072289156624
78,1715781888330,1.25,-0.46,-0.05,-0.73,29.11,53.65
79,1715781888340,1.25,-0.46,-0.05,-0.73,29.11,53.65
80,1715781888350,1.2477606177606178,-0.47343629343629345,-0.03656370656370657,-0.8035135135135134,28.861196911196913,53.25787644787644
81,1715781888360,1.24,-0.52,0.01,-5.49,13.0,28.26
82,1715781888370,1.24,-0.52,0.01,-5.49,13.0,28.26
83,1715781888380,1.24,-0.52,0.01,-5.49,13.0,28.26
84,1715781888390,1.2279389312977098,-0.5109541984732825,0.01,-4.0490839694656495,15.240763358778626,25.12213740458015
85,1715781888400,1.2,-0.49,0.01,1.77,24.29,12.45
86,1715781888410,1.2,-0.49,0.01,1.77,24.29,12.45
87,1715781888420,1.2,-0.49,0.01,1.77,24.29,12.45
88,1715781888430,1.165140562248996,-0.48502008032128513,0.01,1.3803614457831324,14.437710843373493,5.802289156626506
89,1715781888440,1.13,-0.48,0.01,0.79,-0.49,-4.27
90,1715781888450,1.13,-0.48000000000000004,0.01,0.79,-0.49,-4.27
91,1715781888460,1.13,-0.48,0.01,0.79,-0.49,-4.27
92,1715781888470,1.1079746835443038,-0.48,-0.0046835443037974685,1.3736708860759494,0.989367088607595,-9.42392405063291
93,1715781888480,1.1,-0.48000000000000004,-0.01,2.38,3.54,-18.31
94,1715781888490,1.1,-0.48000000000000004,-0.01,2.38,3.54,-18.31
95,1715781888500,1.1,-0.48,-0.01,2.38,3.54,-18.31
96,1715781888510,1.154981818181818,-0.5192727272727273,0.005709090909090909,0.41,-0.5289454545454546,-28.976654545454547
97,1715781888520,1.17,-0.53,0.01,-0.37,-2.14,-33.2
98,1715781888530,1.1699999999999997,-0.53,0.01,-0.37,-2.14,-33.2
99,1715781888540,1.174297520661157,-0.5316115702479339,0.010537190082644629,-0.36999999999999994,-2.14,-33.2
100,1715781888550,1.25,-0.56,0.02,-3.5838495575221234,2.525265486725664,-51.15420353982301
101,1715781888560,1.25,-0.56,0.02,-3.78,2.81,-52.25
102,1715781888570,1.25,-0.56,0.02,-3.78,2.81,-52.25
103,1715781888580,1.2638636363636364,-0.5669318181818183,0.01768939393939394,-2.7818181818181817,3.7413636363636367,-55.304545454545455
104,1715781888590,1.31,-0.59,0.01,3.54,9.64,-74.65
105,1715781888600,1.31,-0.59,0.01,3.54,9.64,-74.65
106,1715781888610,1.31,-0.59,0.01,3.54,9.64,-74.65
107,1715781888620,1.31,-0.59,0.01,3.54,9.64,-74.65
108,1715781888630,1.31,-0.59,0.01,3.54,9.64,-74.65
109,1715781888640,1.318618181818182,-0.5727636363636364,0.027236363636363635,-3.139090909090909,13.535418181818182,-97.47956363636364
110,1715781888650,1.32,-0.57,0.03,-4.21,14.16,-101.14
111,1715781888660,1.3242083333333334,-0.5615833333333333,0.03841666666666667,-0.6918333333333332,15.805458333333332,-111.66924999999999
112,1715781888670,1.33,-0.55,0.05,4.15,18.07,-126.16000000000001
113,1715781888680,1.33,-0.55,0.05,4.15,18.07,-126.16
114,1715781888690,1.33,-0.55,0.05,4.15,18.07,-126.16
115,1715781888700,1.33,-0.55,0.05,4.15,18.07,-126.16000000000001
116,1715781888710,1.33,-0.55,0.05,4.15,18.07,-126.16000000000001
117,1715781888720,1.2505194805194806,-0.4374025974025974,0.02350649350649351,0.14948051948051966,12.486493506493506,-144.06961038961038
118,1715781888730,1.2438403041825095,-0.40368821292775664,0.0370722433460076,-2.0447528517110265,8.001026615969582,-156.5145247148289
119,1715781888740,1.31,-0.45,0.09,-2.99,-2.01,-176.76
120,1715781888750,1.31,-0.45,0.09,-2.99,-2.01,-176.76
121,1715781888760,1.31,-0.45,0.09,-2.99,-2.01,-176.76
122,1715781888770,1.1998113207547172,-0.339811320754717,0.04592452830188679,9.96754716981132,11.287169811320755,-177.53830188679245
123,1715781888780,1.11,-0.25,0.01,24.48,26.18,-178.41
124,1715781888790,1.11,-0.25,0.01,24.48,26.18,-178.41
125,1715781888800,1.11,-0.25,0.01,24.48,26.18,-178.41
126,1715781888810,1.1548101265822786,-0.23506329113924052,0.04734177215189873,16.80506329113924,16.543544303797468,-185.76240506329114
127,1715781888820,1.17,-0.23,0.06,12.82,11.54,-189.58
128,1715781888830,1.17,-0.23,0.06,12.82,11.54,-189.58
129,1715781888840,1.17,-0.23,0.05999999999999999,12.82,11.54,-189.58
130,1715781888850,1.0779166666666666,-0.165,0.06,11.82875,4.13,-197.17958333333334
131,1715781888860,1.0,-0.11,0.06,10.99,-2.14,-203.61
132,1715781888870,1.0,-0.11,0.06,10.99,-2.14,-203.61
133,1715781888880,0.99796992481203,-0.09680451127819549,0.056954887218045105,10.99,-2.14,-203.61
134,1715781888890,0.98,0.02,0.03,10.196324110671936,0.2906324110671937,-207.48909090909092
135,1715781888900,0.98,0.02,0.03,10.19,0.31,-207.52
136,1715781888910,0.98,0.02,0.03,10.19,0.31,-207.52
137,1715781888920,0.9319028340080971,0.04672064777327935,0.027327935222672066,7.2847368421052625,-2.053157894736842,-209.44631578947372
138,1715781888930,0.8,0.12,0.02,-0.85,-8.67,-214.84
139,1715781888940,0.8,0.12,0.02,-0.85,-8.67,-214.84
140,1715781888950,0.8,0.12,0.020000000000000004,-0.85,-8.67,-214.84000000000003
141,1715781888960,0.7591891891891892,0.17247104247104247,0.04915057915057915,6.086370656370656,1.0694594594594593,-206.44092664092665
142,1715781888970,0.73,0.21,0.07,12.76,10.44,-198.36
143,1715781888980,0.73,0.21,0.07,12.76,10.44,-198.36
144,1715781888990,0.73,0.21,0.07,12.76,10.44,-198.36
145,1715781889000,0.5667460317460317,0.2767857142857143,0.07742063492063493,17.00468253968254,31.105396825396824,-194.07769841269842
146,1715781889010,0.51,0.3,0.08,19.53,43.4,-191.53
147,1715781889020,0.51,0.3,0.08,19.53,43.4,-191.53
148,1715781889030,0.51,0.3,0.08,19.53,43.4,-191.53
149,1715781889040,0.3386988847583643,0.4046840148698885,0.04193308550185874,26.331561338289962,33.56052044609665,-171.13375464684017
150,1715781889050,0.33,0.41,0.04,27.59,31.739999999999995,-167.36
151,1715781889060,0.33,0.41,0.04000000000000001,27.59,31.74,-167.36
152,1715781889070,0.3455905511811024,0.421259842519685,0.04259842519685039,27.59,31.74,-167.36
153,1715781889080,0.51,0.54,0.07,34.23843478260869,12.014260869565216,-151.4898260869565
154,1715781889090,0.51,0.54,0.07,35.16,9.28,-149.29
155,1715781889100,0.51,0.54,0.06999999999999999,35.160000000000004,9.28,-149.29
156,1715781889110,0.4538202247191011,0.5793258426966292,0.04471910112359551,34.073857677902616,11.029063670411984,-149.93044943820226
157,1715781889120,0.31,0.68,-0.02,29.36,18.62,-152.71
158,1715781889130,0.31,0.68,-0.02,29.36,18.62,-152.71
159,1715781889140,0.31,0.68,-0.02,29.36,18.62,-152.71
160,1715781889150,0.3112996389891697,0.6791335740072202,-0.018267148014440435,28.812418772563177,17.295234657039714,-152.4483393501805
161,1715781889160,0.34,0.66,0.02,16.72,-11.96,-146.67
162,1715781889170,0.34,0.66,0.02,16.72,-11.96,-146.67
163,1715781889180,0.34,0.66,0.02,16.72,-11.96,-146.67
164,1715781889190,0.23357723577235773,0.7436178861788618,-0.01040650406504065,22.21329268292683,-10.286219512195123,-144.05780487804878
165,1715781889200,0.2,0.77,-0.02,26.73,-8.91,-141.91
166,1715781889210,0.2,0.77,-0.02,26.73,-8.910000000000002,-141.91
167,1715781889220,0.2,0.77,-0.02,26.73,-8.91,-141.91
168,1715781889230,0.12779467680608364,0.8422053231939164,-0.06813688212927757,24.83866920152091,-9.729771863117872,-137.4422433460076
169,1715781889240,0.11,0.86,-0.08,23.5,-10.31,-134.28
170,1715781889250,0.11,0.86,-0.08,23.5,-10.31,-134.28
171,1715781889260,0.11,0.86,-0.08,23.5,-10.31,-134.28
172,1715781889270,0.05047058823529412,0.8401568627450979,-0.05023529411764706,21.213450980392157,-16.030274509803924,-131.8998039215686
173,1715781889280,0.05,0.84,-0.05,20.57,-17.64,-131.23
174,1715781889290,0.05,0.84,-0.05,20.57,-17.64,-131.23
175,1715781889300,0.0254863813229572,0.849533073929961,-0.05408560311284047,20.546459143968875,-17.07287937743191,-130.48782101167313
176,1715781889310,-0.13,0.91,-0.08,20.02,-4.39,-113.89
177,1715781889320,-0.13,0.91,-0.08,20.02,-4.39,-113.89
178,1715781889330,-0.13,0.91,-0.08,20.02,-4.39,-113.89
179,1715781889340,-0.200546875,0.960390625,-0.090078125,20.649492187499998,0.6975,-109.55015625
180,1715781889350,-0.34,1.06,-0.11,22.95,19.29,-93.69
181,1715781889360,-0.34,1.06,-0.11,22.95,19.29,-93.69
182,1715781889370,-0.34,1.06,-0.11,22.95,19.29,-93.69
183,1715781889380,-0.44969957081545064,1.075236051502146,-0.1526609442060086,23.47107296137339,45.066351931330466,-81.67484978540772
184,1715781889390,-0.7,1.11,-0.25,24.66,103.88,-54.26
185,1715781889400,-0.7,1.11,-0.25,24.66,103.88,-54.26
186,1715781889410,-0.7,1.11,-0.25,24.66,103.88,-54.26
187,1715781889420,-0.7,1.1245228215767635,-0.279045643153527,14.286970954356846,84.1275518672199,-33.67576763485477
188,1715781889430,-0.7,1.13,-0.29,-7.39,42.85,9.34
189,1715781889440,-0.7,1.13,-0.29,-7.39,42.85,9.34
190,1715781889450,-0.7,1.13,-0.29,-7.390000000000001,42.85,9.34
191,1715781889460,-0.2822310756972112,1.019163346613546,-0.11095617529880478,-17.37374501992032,-38.33641434262948,28.75199203187251
192,1715781889470,-0.21,1.0,-0.08,-20.51,-63.84,34.85
193,1715781889480,-0.21,1.0,-0.08,-20.510000000000005,-63.839999999999996,34.85
194,1715781889490,-0.2068032786885246,0.9993852459016394,-0.07815573770491803,-20.51,-63.84,34.85
195,1715781889500,0.05,0.95,0.07,-11.648479087452472,-36.99965779467681,37.919353612167306
196,1715781889510,0.05,0.95,0.07,-9.77,-31.31,38.57
197,1715781889520,0.05000000000000001,0.9499999999999998,0.07,-9.77,-31.31,38.57000000000001
198,1715781889530,0.02556650246305419,0.9561083743842365,0.05931034482758621,-9.77,-31.31,38.57
199,1715781889540,-0.11,0.99,0.0,10.157257383966245,25.079535864978904,44.399873417721516
200,1715781889550,-0.11,0.99,0.0,13.61,34.85,45.41
201,1715781889560,-0.11,0.99,0.0,13.61,34.85,45.41
202,1715781889570,-0.17312741312741314,0.9900000000000001,-0.06312741312741312,13.534942084942085,41.12984555984556,54.895444015444006
203,1715781889580,-0.26,0.99,-0.15,13.37,54.93,75.74
204,1715781889590,-0.26,0.99,-0.15,13.37,54.93,75.74
205,1715781889600,-0.26,0.9900000000000001,-0.15,13.37,54.93,75.74
206,1715781889610,-0.24007905138339922,0.9750592885375494,-0.18486166007905136,5.915454545454545,36.78770750988142,85.439604743083
207,1715781889620,-0.22,0.96,-0.22,-5.49,9.03,100.28
208,1715781889630,-0.22,0.9599999999999999,-0.22,-5.49,9.03,100.28
209,1715781889640,-0.22,0.96,-0.22,-5.49,9.03,100.28
210,1715781889650,-0.08453900709219858,0.8990425531914894,-0.16581560283687946,-11.779148936170213,-1.4519148936170214,114.45131205673759
211,1715781889660,-0.02,0.87,-0.14,-16.11,-8.67,124.21
212,1715781889670,-0.02,0.87,-0.14,-16.11,-8.67,124.20999999999998
213,1715781889680,-0.019999999999999997,0.87,-0.14,-16.11,-8.67,124.21
214,1715781889690,0.06605166051660516,0.8387084870848708,-0.14,-17.414059040590406,7.081660516605166,135.80926199261995
215,1715781889700,0.09,0.83,-0.14,-18.01,14.28,141.11
216,1715781889710,0.09,0.83,-0.14,-18.01,14.28,141.11
217,1715781889720,0.10377952755905512,0.8181889763779527,-0.13311023622047244,-18.01,14.28,141.11
218,1715781889730,0.23,0.71,-0.07,-23.33738095238095,32.69269841269842,165.63380952380953
219,1715781889740,0.23,0.71,-0.07,-23.38,32.84,165.83
220,1715781889750,0.23,0.71,-0.07,-23.38,32.84,165.83
221,1715781889760,0.2387866108786611,0.7029707112970711,-0.07175732217573223,-23.38,32.84,165.83
222,1715781889770,0.28,0.67,-0.08,-8.84400778210117,56.27618677042801,180.06832684824906
223,1715781889780,0.28,0.67,-0.08,-8.73,56.46,180.18
224,1715781889790,0.28,0.67,-0.08,-8.73,56.46,180.18
225,1715781889800,0.2691860465116279,0.6519767441860466,-0.10523255813953487,-15.784379844961242,43.76813953488372,178.62972868217054
226,1715781889810,0.25,0.62,-0.15,-57.92,-32.04,169.37
227,1715781889820,0.25,0.62,-0.15,-57.92,-32.04,169.37
228,1715781889830,0.25,0.6199999999999999,-0.15,-57.92,-32.04,169.37
229,1715781889840,0.3826765799256506,0.51817843866171,-0.06360594795539033,-57.92,-32.04,169.37
230,1715781889850,0.68,0.29,0.13,-28.53043137254902,-17.65737254901961,184.42376470588235
231,1715781889860,0.68,0.29,0.13,-20.26,-13.61,188.66
232,1715781889870,0.68,0.29,0.13,-20.26,-13.61,188.66
233,1715781889880,0.5630801687763713,0.35189873417721523,-0.03506329113924051,-24.892025316455694,6.515189873417721,189.746582278481
234,1715781889890,0.51,0.38,-0.11,-30.15,29.36,190.98
235,1715781889900,0.51,0.38,-0.11,-30.15,29.36,190.98
236,1715781889910,0.51,0.38,-0.11,-30.15,29.36,190.98
237,1715781889920,0.78625,0.08700757575757576,0.09090909090909091,-36.378181818181815,-16.014545454545456,180.69757575757578
238,1715781889930,0.84,0.030000000000000002,0.13,-42.24,-58.72,171.02
239,1715781889940,0.84,0.03,0.13,-42.24,-58.72,171.02
240,1715781889950,0.8388679245283018,0.03,0.12660377358490568,-42.24,-58.72,171.02
241,1715781889960,0.81,0.03,0.04,26.401052631578953,70.16887218045113,228.8003007518797
242,1715781889970,0.81,0.029999999999999995,0.04,32.59,81.79,234.01
243,1715781889980,0.81,0.03,0.04,32.59,81.79,234.01
244,1715781889990,0.7999603174603175,0.02817460317460317,0.020833333333333332,32.59,81.79,234.01
245,1715781890000,0.7,0.01,-0.17,-55.560197628458496,-12.993873517786561,238.38264822134389
246,1715781890010,0.7,0.01,-0.17,-55.91,-13.37,238.4
247,1715781890020,0.7,0.01,-0.17,-55.91,-13.37,238.4
248,1715781890030,0.7903765690376569,-0.07836820083682008,-0.08564853556485356,-52.7265690376569,-12.106443514644353,233.93665271966526
249,1715781890040,1.15,-0.43,0.25,-22.83,-0.24,192.02
250,1715781890050,1.15,-0.43,0.25,-22.83,-0.24,192.02
251,1715781890060,1.15,-0.43,0.25,-22.83,-0.24,192.02
252,1715781890070,1.0166666666666666,-0.3652380952380952,0.10523809523809524,-35.423699633699634,12.492600732600733,191.93029304029304
253,1715781890080,0.8,-0.26,-0.13,-66.35,43.76,191.71
254,1715781890090,0.8,-0.26,-0.13,-66.35,43.76,191.71
255,1715781890100,0.8,-0.26,-0.13,-66.35,43.76,191.71
256,1715781890110,1.0434090909090907,-0.515,0.1134090909090909,-58.77454545454545,1.108181818181815,175.67272727272726
257,1715781890120,1.22,-0.7,0.29,-47.12,-64.51,151.0
258,1715781890130,1.22,-0.7,0.29,-47.12,-64.51,151.0
259,1715781890140,1.22,-0.7,0.29,-47.12,-64.51,151.0
260,1715781890150,1.1219455252918287,-0.5692607003891051,0.15381322957198443,-26.75136186770428,7.08852140077821,164.9649027237354
261,1715781890160,1.04,-0.4600000000000001,0.04,-9.46,67.87,176.82
262,1715781890170,1.04,-0.46,0.04,-9.46,67.87,176.82
263,1715781890180,1.04,-0.46,0.04,-9.46,67.87,176.82
264,1715781890190,1.2584375,-0.7694531250000001,0.1765234375,-29.842734375,23.419062500000003,148.3340625
265,1715781890200,1.28,-0.8,0.19000000000000003,-34.79,12.63,141.42
266,1715781890210,1.28,-0.8,0.19,-34.79,12.63,141.42
267,1715781890220,1.2765991902834009,-0.7973279352226721,0.18866396761133603,-34.79,12.63,141.42
268,1715781890230,1.0,-0.58,0.08,1.5603296703296703,57.62186813186813,149.2865934065934
269,1715781890240,1.0,-0.58,0.08,5.55,62.56000000000001,150.15
270,1715781890250,1.0,-0.58,0.08,5.55,62.56,150.15
271,1715781890260,1.0640977443609023,-0.6482330827067669,0.10894736842105264,1.5297744360902257,61.47992481203008,147.13654135338345
272,1715781890270,1.31,-0.91,0.22,-35.58,51.51,119.32
273,1715781890280,1.31,-0.91,0.22,-35.58,51.51,119.32
274,1715781890290,1.31,-0.91,0.22,-35.58,51.51,119.32
275,1715781890300,1.2296694214876034,-0.8564462809917355,0.19991735537190083,-34.47880165289256,42.903471074380164,113.92855371900826
276,1715781890310,1.07,-0.75,0.16,-22.89,-47.67,57.19
277,1715781890320,1.07,-0.75,0.16,-22.89,-47.67,57.19
278,1715781890330,1.07,-0.75,0.16,-22.89,-47.67,57.19
279,1715781890340,1.1355000000000002,-0.7550384615384615,0.17511538461538462,-16.844692307692306,-48.0305,55.6648076923077
280,1715781890350,1.2,-0.76,0.19,-7.63,-48.58,53.34
281,1715781890360,1.2,-0.76,0.19,-7.63,-48.58,53.34
282,1715781890370,1.2,-0.76,0.19,-7.63,-48.58,53.34
283,1715781890380,1.1191416309012876,-0.7060944206008584,0.07545064377682405,-2.837510729613734,-35.68815450643777,40.50738197424893
284,1715781890390,1.08,-0.68,0.02,2.08,-22.46,27.34
285,1715781890400,1.08,-0.68,0.02,2.08,-22.46,27.34
286,1715781890410,1.08,-0.68,0.02,2.08,-22.46,27.34
287,1715781890420,1.1064634146341463,-0.6623577235772358,0.055284552845528454,-3.301463414634146,-28.914552845528455,17.522032520325205
288,1715781890430,1.11,-0.66,0.06,-4.64,-30.52,15.08
289,1715781890440,1.11,-0.66,0.06,-4.64,-30.52,15.08
290,1715781890450,1.11,-0.66,0.06,-4.64,-30.52,15.08
291,1715781890460,1.0402799999999999,-0.66,0.030119999999999997,5.197,10.295,6.728
292,1715781890470,1.04,-0.66,0.03,6.29,14.83,5.8
293,1715781890480,1.04,-0.66,0.03,6.29,14.83,5.8
294,1715781890490,1.0336326530612245,-0.66,0.026816326530612243,5.995306122448979,13.372040816326532,3.707673469387755
295,1715781890500,1.0,-0.66,0.01,4.39,5.43,-7.69
296,1715781890510,1.0,-0.66,0.01,4.39,5.43,-7.69
297,1715781890520,1.0,-0.66,0.01,4.39,5.43,-7.69
298,1715781890530,1.003245283018868,-0.6664905660377358,0.013245283018867925,3.8211320754716978,5.523547169811321,-12.443207547169811
299,1715781890540,1.01,-0.68,0.02,2.14,5.8,-26.49
300,1715781890550,1.01,-0.68,0.020000000000000004,2.14,5.8,-26.49
301,1715781890560,1.01,-0.68,0.02,2.14,5.8,-26.49
302,1715781890570,1.01,-0.6968979591836735,0.025632653061224493,0.8879591836734695,6.246938775510204,-29.19918367346939
303,1715781890580,1.01,-0.71,0.03,-1.95,7.26,-35.34
304,1715781890590,1.01,-0.71,0.030000000000000002,-1.95,7.26,-35.34
305,1715781890600,1.01,-0.71,0.03,-1.95,7.26,-35.34
306,1715781890610,1.0825978647686831,-0.7039501779359431,0.06629893238434163,8.874341637010676,22.80419928825623,-39.443345195729535
307,1715781890620,1.13,-0.7,0.09,19.47,38.02,-43.46
308,1715781890630,1.13,-0.7,0.09,19.470000000000002,38.02,-43.46
309,1715781890640,1.13,-0.7,0.09,19.47,38.02,-43.46
310,1715781890650,1.0437096774193548,-0.7172580645161291,0.020967741935483872,-1.20483870967742,3.9119354838709683,-61.23548387096775
311,1715781890660,1.03,-0.72,0.01,-11.05,-12.33,-69.7
312,1715781890670,1.03,-0.72,0.01,-11.05,-12.33,-69.7
313,1715781890680,1.03,-0.72,0.01,-11.05,-12.33,-69.7
314,1715781890690,1.2284674329501915,-0.7696168582375479,0.12908045977011492,12.314137931034482,-10.743103448275862,-86.71655172413793
315,1715781890700,1.23,-0.77,0.13,15.01,-10.56,-88.68
316,1715781890710,1.23,-0.77,0.13,15.01,-10.56,-88.68
317,1715781890720,1.2106130268199236,-0.7523754789272031,0.11413793103448278,14.67712643678161,-8.93977011494253,-90.15800766283526
318,1715781890730,1.12,-0.67,0.04,9.58,15.87,-112.79
319,1715781890740,1.12,-0.67,0.04,9.58,15.869999999999997,-112.79
320,1715781890750,1.12,-0.67,0.04,9.58,15.87,-112.79
321,1715781890760,1.1297338403041826,-0.6687832699619772,0.04608365019011407,10.321406844106464,14.977718631178707,-114.48851711026617
322,1715781890770,1.2,-0.66,0.09,15.869999999999997,8.3,-127.2
323,1715781890780,1.2,-0.66,0.09,15.87,8.3,-127.2
324,1715781890790,1.2,-0.66,0.09,15.87,8.3,-127.20000000000002
325,1715781890800,1.1385123966942148,-0.5882644628099174,0.06950413223140496,15.244090909090907,8.226363636363637,-137.36181818181817
326,1715781890810,1.08,-0.52,0.05,14.34,8.12,-152.04
327,1715781890820,1.08,-0.52,0.05,14.34,8.12,-152.04
328,1715781890830,1.08,-0.52,0.05,14.34,8.12,-152.04
329,1715781890840,1.1311522633744857,-0.52,0.06395061728395061,13.972633744855967,-2.4685185185185192,-154.28139917695472
330,1715781890850,1.19,-0.52,0.08,13.55,-14.65,-156.86
331,1715781890860,1.19,-0.52,0.08,13.55,-14.65,-156.86
332,1715781890870,1.19,-0.52,0.08,13.55,-14.65,-156.86
333,1715781890880,,,,,,
334,1715781890890,1.1,-0.4,0.03,14.89,8.12,-174.44
335,1715781890900,1.1,-0.4,0.03,14.89,8.12,-174.44
336,1715781890910,1.1,-0.4,0.03,14.89,8.12,-174.44
337,1715781890920,1.13,-0.34,0.030000000000000002,9.332379182156133,-7.3632713754646835,-183.79873605947955
338,1715781890930,1.13,-0.34,0.03,8.91,-8.54,-184.51
339,1715781890940,1.13,-0.34,0.03,8.91,-8.54,-184.51
340,1715781890950,1.120305676855895,-0.32384279475982536,0.03161572052401747,8.95829694323144,-8.234323144104803,-184.8719213973799
341,1715781890960,1.07,-0.24,0.04,9.7,-3.54,-190.43
342,1715781890970,1.07,-0.24,0.04,9.7,-3.54,-190.43
343,1715781890980,1.07,-0.24,0.04,9.7,-3.54,-190.43
344,1715781890990,1.07,-0.2143820224719101,0.04,9.901348314606741,-1.75123595505618,-191.28573033707866
345,1715781891000,1.07,-0.15,0.04,13.06,26.31,-204.71
346,1715781891010,1.07,-0.15,0.04,13.06,26.31,-204.71
347,1715781891020,1.07,-0.15,0.04,13.06,26.31,-204.71
348,1715781891030,1.07,-0.15,0.04,13.06,26.31,-204.71
349,1715781891040,0.9395940959409594,-0.07450184501845018,0.03313653136531366,15.974944649446494,23.64081180811808,-199.95870848708486
350,1715781891050,0.88,-0.04,0.029999999999999995,17.33,22.4,-197.75
351,1715781891060,0.8800000000000001,-0.04,0.030000000000000002,17.33,22.399999999999995,-197.75
352,1715781891070,0.8421771217712177,0.08859778597785978,0.029999999999999995,17.33,22.4,-197.75
353,1715781891080,0.8300000000000001,0.13,0.03,17.33,-1.788284518828452,-213.83619246861926
354,1715781891090,0.83,0.13,0.03,17.33,-2.2,-214.11
355,1715781891100,0.83,0.13,0.03,17.33,-2.2,-214.11
356,1715781891110,0.71016,0.18136000000000002,0.05568,21.02684,12.889760000000003,-204.00227999999998
357,1715781891120,0.69,0.19,0.05999999999999999,22.22,17.76,-200.74
358,1715781891130,0.69,0.19,0.06,22.22,17.76,-200.74
359,1715781891140,0.69,0.19,0.06,22.22,17.76,-200.74
360,1715781891150,0.5215094339622641,0.3673584905660377,0.024528301886792454,24.189339622641505,8.433207547169811,-202.66995283018866
361,1715781891160,0.5,0.39,0.02,24.72,5.92,-203.19
362,1715781891170,0.5,0.39,0.02,24.72,5.92,-203.19
363,1715781891180,0.4931932773109243,0.39907563025210085,0.02226890756302521,24.526176470588233,5.431764705882353,-202.76617647058822
364,1715781891190,0.44,0.47,0.04,18.13,-10.68,-188.78
365,1715781891200,0.44,0.47,0.04,18.13,-10.68,-188.78
366,1715781891210,0.44,0.47,0.04,18.13,-10.68,-188.78
367,1715781891220,0.4214782608695652,0.4916086956521739,0.03073913043478261,18.93491304347826,-9.664173913043477,-187.42269565217393
368,1715781891230,0.38,0.54,0.01,23.74,-3.6,-179.32
369,1715781891240,0.38,0.54,0.01,23.74,-3.6,-179.32
370,1715781891250,0.38,0.54,0.01,23.74,-3.6,-179.32
371,1715781891260,0.30671111111111116,0.6089777777777778,-0.0029333333333333334,22.833066666666664,-4.707911111111111,-178.1344
372,1715781891270,0.21,0.7,-0.02,13.0,-16.72,-165.28
373,1715781891280,0.21,0.7,-0.02,13.0,-16.72,-165.28
374,1715781891290,0.21,0.7,-0.02,13.0,-16.72,-165.28
375,1715781891300,0.24244897959183673,0.680530612244898,0.005959183673469388,3.851918367346939,-31.08604081632653,-159.82889795918368
376,1715781891310,0.26,0.67,0.02,-3.48,-42.6,-155.46
377,1715781891320,0.26,0.67,0.02,-3.48,-42.6,-155.46
378,1715781891330,0.26,0.67,0.02,-3.48,-42.6,-155.46
379,1715781891340,0.2982899628252788,0.7618959107806692,-0.010631970260223047,-14.957769516728625,-39.049962825278804,-161.75977695167285
380,1715781891350,0.31,0.79,-0.02,-20.26,-37.41,-164.67
381,1715781891360,0.30999999999999994,0.79,-0.020000000000000004,-20.26,-37.41,-164.67
382,1715781891370,0.31,0.79,-0.02,-20.26,-37.41,-164.67
383,1715781891380,0.31,0.79,-0.02,-20.26,-37.41,-164.67
384,1715781891390,0.30144981412639404,0.6959479553903346,0.20230483271375463,-22.652156133828996,-18.706914498141263,-171.63364312267657
385,1715781891400,0.3,0.68,0.24,-23.07,-15.44,-172.85
386,1715781891410,0.25927659574468087,0.6884255319148936,0.20910638297872342,-20.611957446808514,-10.373191489361702,-171.19025531914895
387,1715781891420,0.01,0.74,0.02,59.45,154.66,-117.13
388,1715781891430,0.01,0.74,0.02,59.45,154.66,-117.13
389,1715781891440,0.01,0.7399999999999999,0.02,59.45,154.66,-117.13
390,1715781891450,-0.22760956175298802,0.8337051792828685,-0.09378486055776893,59.83151394422311,147.09247011952192,-120.31513944223107
391,1715781891460,-0.7,1.02,-0.32,60.97,124.51,-129.82
392,1715781891470,-0.7,1.02,-0.32,60.97,124.50999999999999,-129.82
393,1715781891480,-0.7,1.02,-0.32,60.97,124.51,-129.82
394,1715781891490,-0.8053639846743295,1.0579310344827586,-0.34107279693486586,56.74049808429119,88.1172030651341,-117.49402298850575
395,1715781891500,-0.95,1.11,-0.37,47.67,10.07,-91.06
396,1715781891510,-0.95,1.11,-0.37,47.67,10.07,-91.06
397,1715781891520,-0.95,1.11,-0.37,47.67,10.07,-91.06
398,1715781891530,-0.8713934426229508,1.1549180327868853,-0.3756147540983607,25.984057377049183,17.512459016393443,-43.138934426229504
399,1715781891540,-0.81,1.19,-0.38,0.0,26.43,14.28
400,1715781891550,-0.81,1.19,-0.38,0.0,26.43,14.28
401,1715781891560,-0.81,1.19,-0.38,0.0,26.43,14.28
402,1715781891570,-0.5091596638655462,1.0395798319327731,-0.19197478991596637,-18.00735294117647,-7.917478991596639,36.26004201680672
403,1715781891580,-0.41,0.9899999999999999,-0.13,-27.65,-26.31,48.03
404,1715781891590,-0.41,0.99,-0.13,-27.65,-26.31,48.03
405,1715781891600,-0.41,0.99,-0.13,-27.65,-26.31,48.03
406,1715781891610,-0.22278195488721803,0.999360902255639,-0.027030075187969925,-12.698721804511278,-10.838157894736842,61.68413533834586
407,1715781891620,-0.21,1.0,-0.02,-10.13,-8.18,64.03
408,1715781891630,-0.21,1.0,-0.02,-10.13,-8.18,64.03
409,1715781891640,-0.21239700374531836,0.9991011235955056,-0.023895131086142322,-10.13,-8.18,64.03
410,1715781891650,-0.29,0.97,-0.15,-7.619339207048458,10.668281938325993,83.49220264317181
411,1715781891660,-0.29,0.9699999999999999,-0.15,-7.39,12.39,85.27
412,1715781891670,-0.2899999999999999,0.97,-0.15,-7.389999999999999,12.39,85.27
413,1715781891680,-0.2834841628959276,0.9645701357466063,-0.15217194570135748,-8.304389140271493,9.473076923076924,87.66239819004525
414,1715781891690,-0.23000000000000004,0.9200000000000002,-0.17,-15.81,-14.470000000000002,107.3
415,1715781891700,-0.23,0.92,-0.17,-15.81,-14.47,107.3
416,1715781891710,-0.23,0.92,-0.17,-15.81,-14.47,107.3
417,1715781891720,-0.19485477178423236,0.9008298755186722,-0.15721991701244814,-19.000871369294607,-17.191991701244817,110.68174273858921
418,1715781891730,-0.12000000000000001,0.86,-0.13,-31.19,-27.59,123.6
419,1715781891740,-0.12,0.86,-0.13,-31.19,-27.59,123.6
420,1715781891750,-0.12,0.86,-0.13,-31.19,-27.59,123.6
421,1715781891760,-0.07411320754716981,0.808377358490566,-0.0841132075471698,-34.52283018867925,-23.107584905660378,134.47758490566036
422,1715781891770,-0.04,0.77,-0.05,-38.09,-18.31,146.12
423,1715781891780,-0.04,0.77,-0.05,-38.09,-18.31,146.12
424,1715781891790,-0.04000000000000001,0.77,-0.05,-38.09,-18.31,146.12
425,1715781891800,-0.011325301204819279,0.7413253012048193,-0.054096385542168675,-34.82068273092369,-15.438192771084337,156.5161044176707
426,1715781891810,0.029999999999999995,0.7,-0.05999999999999999,-30.030000000000005,-11.23,171.75
427,1715781891820,0.03,0.7,-0.06,-30.03,-11.23,171.75
428,1715781891830,0.03,0.7,-0.06,-30.03,-11.23,171.75
429,1715781891840,0.13958677685950413,0.5819834710743802,-0.02628099173553719,-36.19157024793389,-28.866157024793388,179.82272727272726
430,1715781891850,0.16,0.56,-0.02,-38.09,-34.3,182.31
431,1715781891860,0.16,0.56,-0.02,-38.09,-34.3,182.31
432,1715781891870,0.17624548736462095,0.5556678700361012,-0.018916967509025273,-38.09,-34.3,182.31
433,1715781891880,0.46,0.48,0.0,-23.936597510373446,-14.908921161825727,210.40829875518673
434,1715781891890,0.46,0.48000000000000004,0.0,-21.12,-11.05,216.0
435,1715781891900,0.46,0.48,0.0,-21.12,-11.05,216.0
436,1715781891910,0.48329670329670327,0.4567032967032967,0.005824175824175824,-21.12,-11.05,216.0
437,1715781891920,0.58,0.36,0.029999999999999995,-13.841940298507463,-43.954776119402986,185.63261194029852
438,1715781891930,0.58,0.36,0.029999999999999995,-13.06,-47.49,182.37
439,1715781891940,0.58,0.36,0.03,-13.06,-47.49,182.36999999999998
440,1715781891950,0.7052767527675277,0.306309963099631,0.0192619926199262,-8.329963099630996,-24.304760147601478,191.28143911439116
441,1715781891960,0.93,0.21,0.0,17.46,102.11,239.87
442,1715781891970,0.93,0.21,0.0,17.46,102.11,239.87
443,1715781891980,0.93,0.21,0.0,17.46,102.11,239.87
444,1715781891990,0.864125,0.21,-0.015500000000000002,-0.9093333333333331,54.28916666666667,209.4985
445,1715781892000,0.76,0.21,-0.04,-30.46,-22.64,160.64
446,1715781892010,0.76,0.21,-0.04,-30.46,-22.64,160.64
447,1715781892020,0.76,0.21,-0.04,-30.46,-22.64,160.64
448,1715781892030,0.9859848484848486,0.01375,0.03731060606060606,-16.72477272727273,-1.5769318181818182,177.15193181818182
449,1715781892040,1.14,-0.12,0.09,-3.6,18.55,192.93
450,1715781892050,1.14,-0.12,0.09,-3.6,18.55,192.93
451,1715781892060,1.14,-0.12,0.09,-3.6,18.55,192.93
452,1715781892070,0.9800836820083683,0.032301255230125524,-0.0013807531380753137,-13.432803347280334,-23.841882845188284,158.83092050209203
453,1715781892080,0.93,0.08,-0.03,-18.86,-47.24,140.01
454,1715781892090,0.93,0.08,-0.03,-18.86,-47.24,140.01
455,1715781892100,0.93,0.08,-0.03,-18.86,-47.24,140.01
456,1715781892110,1.3060516605166053,-0.19985239852398523,0.10992619926199262,1.3304797047970485,30.383062730627305,165.10542435424355
457,1715781892120,1.36,-0.23999999999999996,0.13,7.32,53.41,172.55
458,1715781892130,1.36,-0.24,0.13,7.32,53.41,172.55
459,1715781892140,1.3371003717472119,-0.22814126394052045,0.11895910780669144,7.32,53.41,172.55
460,1715781892150,0.8,0.05,-0.14,-0.878421052631579,4.9692105263157895,152.57973684210526
461,1715781892160,0.8,0.05,-0.14,-1.1,3.66,152.04
462,1715781892170,0.8,0.05,-0.14,-1.1,3.66,152.04
463,1715781892180,0.8982758620689656,-0.04172413793103448,-0.06793103448275864,-3.4837547892720306,1.9188505747126439,149.92444444444445
464,1715781892190,1.25,-0.37,0.19,-23.32,-12.57,132.32
465,1715781892200,1.25,-0.37,0.19,-23.32,-12.569999999999999,132.32
466,1715781892210,1.25,-0.37,0.19,-23.32,-12.57,132.32
467,1715781892220,1.0767432950191569,-0.29704980842911877,0.08969348659003831,-16.328582375478927,-4.069157088122605,136.0785440613027
468,1715781892230,0.87,-0.21,-0.03,-4.7,10.07,142.33
469,1715781892240,0.87,-0.21,-0.03,-4.7,10.07,142.33
470,1715781892250,0.8699999999999999,-0.21,-0.03,-4.7,10.07,142.33
471,1715781892260,1.025300751879699,-0.3307894736842105,0.03327067669172932,-9.499774436090226,5.894473684210527,139.28274436090229
472,1715781892270,1.14,-0.42,0.08,-15.08,1.04,135.74
473,1715781892280,1.14,-0.42,0.08,-15.08,1.04,135.74
474,1715781892290,1.14,-0.42,0.08,-15.08,1.04,135.74
475,1715781892300,1.0348398576512454,-0.4410320284697509,0.009893238434163702,-13.908185053380782,5.38049822064057,139.171743772242
476,1715781892310,0.99,-0.45,-0.02,-13.12,8.3,141.48
477,1715781892320,0.99,-0.44999999999999996,-0.02,-13.12,8.3,141.48
478,1715781892330,0.99,-0.45,-0.02,-13.12,8.3,141.48
479,1715781892340,1.1792988929889299,-0.5595940959409594,0.05970479704797048,-12.632915129151291,-9.810701107011072,119.3220664206642
480,1715781892350,1.18,-0.56,0.06,-12.57,-12.15,116.46
481,1715781892360,1.18,-0.56,0.06,-12.57,-12.15,116.46
482,1715781892370,1.18,-0.56,0.06,-12.57,-12.15,116.46
483,1715781892380,1.143265306122449,-0.6151020408163265,0.004897959183673469,-13.859142857142858,12.297999999999998,127.50457142857142
484,1715781892390,1.14,-0.62,0.0,-13.98,14.59,128.54
485,1715781892400,1.14,-0.62,0.0,-13.98,14.59,128.54
486,1715781892410,1.1700854700854701,-0.6254700854700855,0.002735042735042735,-12.542820512820512,9.653247863247865,122.43401709401708
487,1715781892420,1.25,-0.64,0.01,-5.13,-15.81,90.94
488,1715781892430,1.25,-0.64,0.01,-5.13,-15.81,90.94
489,1715781892440,1.25,-0.6399999999999999,0.009999999999999998,-5.130000000000001,-15.81,90.94
490,1715781892450,1.2798406374501992,-0.6485258964143427,0.04410358565737052,-0.8519920318725099,14.579482071713146,83.0005577689243
491,1715781892460,1.32,-0.66,0.09,5.0,56.15,72.14
492,1715781892470,1.32,-0.66,0.09,5.0,56.15,72.14
493,1715781892480,1.32,-0.66,0.09,5.0,56.15,72.14
494,1715781892490,1.135483870967742,-0.6174193548387097,-0.0022580645161290338,1.8639784946236557,48.08691756272401,65.53086021505376
495,1715781892500,1.06,-0.6,-0.04,-4.21,32.47,52.73
496,1715781892510,1.06,-0.6,-0.04,-4.21,32.47,52.73
497,1715781892520,1.0600000000000003,-0.6,-0.04,-4.21,32.47,52.73
498,1715781892530,1.1080508474576272,-0.6240254237288136,0.0801271186440678,-6.702542372881355,16.902542372881356,29.422542372881352
499,1715781892540,1.12,-0.63,0.11,-7.63,11.11,20.75
500,1715781892550,1.12,-0.63,0.11,-7.63,11.11,20.75
501,1715781892560,1.1195255474452557,-0.630036496350365,0.10985401459854015,-7.63,11.11,20.75
502,1715781892570,0.99,-0.64,0.07,-6.217191489361702,5.3571914893617025,16.188382978723403
503,1715781892580,0.9900000000000001,-0.64,0.07,-6.1,4.88,15.81
504,1715781892590,0.9899999999999999,-0.64,0.07,-6.1,4.88,15.81
505,1715781892600,0.9981923076923076,-0.6318076923076923,0.06726923076923078,-6.1,4.88,15.810000000000002
506,1715781892610,1.02,-0.61,0.06,-1.2249999999999999,-8.435714285714287,-2.213571428571429
507,1715781892620,1.02,-0.61,0.05999999999999999,-0.85,-9.46,-3.6
508,1715781892630,1.02,-0.61,0.06,-0.85,-9.46,-3.6
509,1715781892640,1.0403557312252967,-0.6425691699604743,0.07221343873517787,-1.1151383399209487,-5.526086956521739,-6.760079051383399
510,1715781892650,1.07,-0.69,0.09,-1.71,3.3,-13.85
511,1715781892660,1.07,-0.69,0.09,-1.71,3.3,-13.85
512,1715781892670,1.07,-0.69,0.09,-1.71,3.3,-13.85
513,1715781892680,1.0523107569721115,-0.6605179282868525,0.06641434262948208,0.8417928286852591,5.880956175298804,-22.04003984063745
514,1715781892690,1.04,-0.64,0.05,3.54,8.61,-30.7
515,1715781892700,1.04,-0.64,0.05,3.54,8.61,-30.7
516,1715781892710,1.04,-0.64,0.05,3.54,8.61,-30.7
517,1715781892720,1.1036363636363637,-0.6612121212121213,0.07651515151515152,3.696969696969697,7.468787878787879,-38.832727272727276
518,1715781892730,1.16,-0.68,0.1,3.9100000000000006,5.92,-49.87
519,1715781892740,1.16,-0.68,0.1,3.91,5.92,-49.87
520,1715781892750,1.1439043824701196,-0.6558565737051792,0.05171314741035857,2.023784860557769,13.969721115537848,-59.92513944223107
521,1715781892760,1.14,-0.65,0.04,1.22,17.4,-64.21
522,1715781892770,1.14,-0.65,0.04,1.22,17.4,-64.21
523,1715781892780,1.1419140625,-0.6502734375,0.0413671875,1.22,17.4,-64.21
524,1715781892790,1.21,-0.66,0.09,6.168823529411765,20.54254901960784,-83.22196078431374
525,1715781892800,1.21,-0.66,0.09,6.59,20.81,-84.84
526,1715781892810,1.2100000000000002,-0.66,0.09,6.590000000000001,20.81,-84.84
527,1715781892820,1.21,-0.66,0.09,6.59,20.81,-84.84
528,1715781892830,1.21,-0.6696280991735538,0.09,3.4801239669421484,3.5949586776859506,-105.5789256198347
529,1715781892840,1.21,-0.67,0.09,3.36,2.93,-106.38
530,1715781892850,1.21,-0.67,0.09,3.36,2.93,-106.38
531,1715781892860,1.2247540983606557,-0.6650819672131147,0.09491803278688525,5.680819672131147,4.168729508196722,-110.19528688524589
532,1715781892870,1.3,-0.64,0.12000000000000001,17.88,10.68,-130.25
533,1715781892880,1.3,-0.64,0.12,17.88,10.68,-130.25
534,1715781892890,1.3,-0.64,0.12,17.88,10.68,-130.25
535,1715781892900,1.25078125,-0.59078125,0.1076953125,18.5778125,9.8528515625,-137.1348828125
536,1715781892910,1.18,-0.52,0.09,20.2,7.930000000000001,-153.14
537,1715781892920,1.18,-0.52,0.09,20.2,7.93,-153.14
538,1715781892930,1.18,-0.52,0.09,20.2,7.93,-153.14
539,1715781892940,1.1949454545454545,-0.5050545454545455,0.09996363636363635,20.542,6.807999999999999,-155.874
540,1715781892950,1.21,-0.49,0.11000000000000001,21.910000000000004,2.32,-166.81
541,1715781892960,1.21,-0.49,0.11,21.91,2.32,-166.81
542,1715781892970,1.21,-0.49,0.11,21.91,2.32,-166.81
543,1715781892980,1.1655212355212354,-0.4158687258687259,0.08776061776061776,22.002972972972973,3.23027027027027,-168.73648648648648
544,1715781892990,1.15,-0.39,0.08,22.34,6.53,-175.72
545,1715781893000,1.15,-0.39,0.08,22.34,6.53,-175.72
546,1715781893010,1.1329268292682926,-0.33024390243902435,0.07146341463414635,19.740243902439026,-2.6071544715447157,-186.4839024390244
547,1715781893020,1.13,-0.32,0.07,18.92,-5.49,-189.88
548,1715781893030,1.13,-0.32,0.07,18.92,-5.49,-189.88
549,1715781893040,1.13,-0.32,0.07,18.92,-5.49,-189.88
550,1715781893050,1.0648971193415637,-0.2362962962962963,0.09790123456790124,27.03925925925926,5.28917695473251,-199.70123456790125
551,1715781893060,1.06,-0.23,0.1,27.65,6.1,-200.44
552,1715781893070,1.06,-0.23,0.1,27.65,6.1,-200.44
553,1715781893080,1.0204705882352942,-0.19705882352941176,0.0868235294117647,24.464313725490193,4.665686274509804,-201.42784313725488
554,1715781893090,0.94,-0.13,0.06,12.88,-0.55,-205.02
555,1715781893100,0.94,-0.13,0.06,12.88,-0.55,-205.02
556,1715781893110,0.94,-0.13,0.06,12.88,-0.55,-205.02
557,1715781893120,0.8827007299270072,-0.04405109489051095,0.042810218978102194,15.66029197080292,-4.022992700729927,-204.6119708029197
558,1715781893130,0.84,0.02,0.03,18.74,-7.87,-204.16
559,1715781893140,0.84,0.02,0.03,18.74,-7.869999999999999,-204.16
560,1715781893150,0.84,0.02,0.03,18.74,-7.87,-204.16
561,1715781893160,0.84,0.056078431372549024,0.07329411764705882,11.440980392156861,-14.840588235294117,-204.66980392156862
562,1715781893170,0.84,0.07,0.09,3.85,-22.09,-205.2
563,1715781893180,0.84,0.07,0.09,3.85,-22.09,-205.2
564,1715781893190,0.84,0.07,0.09,3.85,-22.09,-205.2
565,1715781893200,0.7278985507246376,0.18210144927536231,0.041956521739130434,17.788478260869564,4.465507246376812,-199.66818840579708
566,1715781893210,0.7,0.20999999999999996,0.03,23.68,15.689999999999998,-197.33
567,1715781893220,0.6999999999999998,0.21,0.03,23.679999999999996,15.69,-197.33
568,1715781893230,0.7,0.21,0.029999999999999995,23.68,15.69,-197.33
569,1715781893240,0.5744486692015208,0.32589353612167304,0.03965779467680608,14.85958174904943,9.682015209125474,-191.80091254752853
570,1715781893250,0.57,0.33,0.04,13.55,8.79,-190.98
571,1715781893260,0.57,0.33,0.04,13.55,8.79,-190.98
572,1715781893270,0.5573359073359073,0.348996138996139,0.04158301158301158,13.55,8.79,-190.98
573,1715781893280,0.49,0.45,0.05,16.50792452830189,0.566,-181.86377358490566
574,1715781893290,0.49,0.45,0.05,16.6,0.31,-181.58
575,1715781893300,0.49,0.45,0.05,16.6,0.31,-181.58
576,1715781893310,0.4334351145038168,0.48480916030534354,0.036946564885496185,16.733435114503816,1.3180152671755725,-179.88885496183207
577,1715781893320,0.36,0.53,0.02,17.52,7.26,-169.92
578,1715781893330,0.35999999999999993,0.5300000000000001,0.02,17.52,7.259999999999999,-169.92
579,1715781893340,0.36,0.53,0.02,17.52,7.26,-169.92
580,1715781893350,0.36,0.5488114754098361,0.01790983606557377,17.52,7.26,-169.92
581,1715781893360,0.36,0.62,0.01,12.27,-22.46,-163.57
582,1715781893370,0.36,0.62,0.01,12.27,-22.46,-163.57
583,1715781893380,0.36,0.62,0.01,12.27,-22.46,-163.57
584,1715781893390,0.2710162601626016,0.6685365853658537,0.001910569105691057,11.125975609756097,-19.34451219512195,-155.31719512195122
585,1715781893400,0.25,0.68,0.0,10.68,-18.13,-152.1
586,1715781893410,0.25,0.68,0.0,10.68,-18.13,-152.1
587,1715781893420,0.24911111111111112,0.6814444444444445,-0.0002222222222222222,10.68,-18.13,-152.1
588,1715781893430,0.17,0.81,-0.02,13.820297397769517,-7.588884758364313,-148.79442379182154
589,1715781893440,0.17,0.81,-0.02,14.1,-6.65,-148.5
590,1715781893450,0.17,0.81,-0.02,14.1,-6.65,-148.5
591,1715781893460,0.16635627530364375,0.8118218623481782,-0.023643724696356276,13.09995951417004,-7.225384615384615,-147.92874493927127
592,1715781893470,0.15,0.82,-0.04,-0.43,-15.01,-140.2
593,1715781893480,0.15,0.82,-0.04,-0.43,-15.01,-140.2
594,1715781893490,0.15,0.82,-0.04,-0.43,-15.01,-140.2
595,1715781893500,0.13624535315985128,0.8420074349442379,-0.03174721189591079,-1.8050557620817846,-18.935985130111522,-139.8907434944238
596,1715781893510,0.1,0.9,-0.01,-8.3,-37.48,-138.43
597,1715781893520,0.1,0.9,-0.01,-8.3,-37.48,-138.43
598,1715781893530,0.1,0.9,-0.01,-8.3,-37.47999999999999,-138.43
599,1715781893540,0.06434456928838951,0.889812734082397,0.010374531835205992,-11.185917602996255,-31.734681647940075,-143.44610486891386
600,1715781893550,0.03,0.88,0.03,-14.83,-24.48,-149.78
601,1715781893560,0.03,0.88,0.03,-14.83,-24.48,-149.78
602,1715781893570,0.029999999999999995,0.88,0.029999999999999995,-14.83,-24.48,-149.78
603,1715781893580,-0.18831325301204818,0.9042570281124498,0.011807228915662651,-5.862530120481928,15.429036144578316,-150.64204819277109
604,1715781893590,-0.33,0.92,0.0,1.71,49.13,-151.37
605,1715781893600,-0.33,0.92,0.0,1.71,49.13,-151.37
606,1715781893610,-0.33,0.92,0.0,1.71,49.13,-151.37
607,1715781893620,-0.9751162790697675,1.0525581395348838,-0.10604651162790697,8.616046511627907,114.81186046511628,-126.15697674418605
608,1715781893630,-1.06,1.07,-0.11999999999999998,10.99,137.39,-117.49000000000001
609,1715781893640,-1.06,1.07,-0.12,10.99,137.39,-117.49
610,1715781893650,-1.064790874524715,1.0682889733840306,-0.124106463878327,10.99,137.39,-117.49
611,1715781893660,-1.2,1.02,-0.24,-8.436535433070867,89.55145669291339,-14.982834645669291
612,1715781893670,-1.2,1.02,-0.23999999999999996,-9.83,86.12,-7.63
613,1715781893680,-1.2,1.02,-0.24,-9.83,86.12,-7.63
614,1715781893690,-1.1930258302583026,1.0191143911439116,-0.23745387453874536,-9.83,86.12,-7.63
615,1715781893700,-0.57,0.94,-0.01,-5.638076923076922,-22.038076923076922,37.43115384615384
616,1715781893710,-0.57,0.94,-0.01,-4.64,-47.79,48.16
617,1715781893720,-0.57,0.94,-0.01,-4.64,-47.79,48.16
618,1715781893730,-0.5049056603773584,0.9428301886792453,0.00981132075471698,-1.1103396226415092,-33.60992452830188,54.14143396226415
619,1715781893740,-0.34,0.95,0.06,8.0,2.9900000000000007,69.58
620,1715781893750,-0.34,0.95,0.06,8.0,2.99,69.58
621,1715781893760,-0.34,0.95,0.06,8.0,2.99,69.58
622,1715781893770,-0.37353658536585366,0.9455284552845529,0.02422764227642276,8.911585365853659,8.113983739837398,73.03528455284552
623,1715781893780,-0.49,0.93,-0.1,16.97,53.41,103.58
624,1715781893790,-0.49000000000000005,0.93,-0.1,16.97,53.41,103.58
625,1715781893800,-0.49,0.93,-0.1,16.97,53.41,103.58
626,1715781893810,-0.4394444444444444,0.8938888888888888,-0.1361111111111111,9.245833333333332,22.213055555555552,121.20055555555555
627,1715781893820,-0.42,0.88,-0.15,4.88,4.58,131.16
628,1715781893830,-0.42,0.88,-0.15,4.88,4.58,131.16
629,1715781893840,-0.42,0.88,-0.15,4.88,4.58,131.16
630,1715781893850,-0.2515546218487395,0.8268067226890756,-0.1234033613445378,-1.0371848739495797,-19.09533613445378,149.88785714285717
631,1715781893860,-0.23,0.82,-0.11999999999999998,-4.09,-31.310000000000002,159.55
632,1715781893870,-0.23,0.82,-0.12,-4.09,-31.31,159.55
633,1715781893880,-0.22798418972332016,0.8185770750988142,-0.11940711462450591,-4.09,-31.31,159.55
634,1715781893890,-0.06,0.7,-0.07,-17.35125,-33.37,166.864609375
635,1715781893900,-0.06,0.7,-0.07,-20.57,-33.87,168.64
636,1715781893910,-0.05999999999999999,0.7,-0.07,-20.57,-33.87,168.64
637,1715781893920,-0.008679245283018866,0.6788679245283019,-0.054905660377358494,-17.92,-27.779999999999998,173.412
638,1715781893930,0.11,0.63,-0.02,-7.32,-3.42,192.5
639,1715781893940,0.11,0.63,-0.019999999999999997,-7.32,-3.42,192.5
640,1715781893950,0.11,0.63,-0.02,-7.32,-3.42,192.5
641,1715781893960,0.15915129151291513,0.6081549815498155,-0.0418450184501845,-8.802509225092251,-12.159483394833948,193.75830258302582
642,1715781893970,0.2,0.59,-0.06,-10.56,-22.52,195.25
643,1715781893980,0.2,0.59,-0.06,-10.56,-22.52,195.25
644,1715781893990,0.2,0.59,-0.05999999999999999,-10.56,-22.52,195.25
645,1715781894000,0.44192307692307686,0.4330769230769231,-0.0011538461538461537,-10.56,-22.52,195.25
646,1715781894010,0.57,0.35,0.03,-6.913596059113301,-13.875073891625615,202.75857142857143
647,1715781894020,0.57,0.35,0.03,-5.49,-10.5,205.69
648,1715781894030,0.57,0.35,0.03,-5.49,-10.5,205.69
649,1715781894040,0.5293360995850622,0.3784647302904564,-0.010663900414937762,-0.8975933609958509,0.06535269709543569,202.71560165975103
650,1715781894050,0.47,0.42,-0.07,5.92,15.75,198.3
651,1715781894060,0.47,0.42,-0.07,5.92,15.75,198.3
652,1715781894070,0.5199999999999999,0.38249999999999995,-0.0675,5.92,15.75,198.3
653,1715781894080,1.07,-0.03,-0.04,-8.042666666666666,-23.586000000000002,191.6217777777778
654,1715781894090,1.07,-0.03,-0.04,-8.36,-24.48,191.47
655,1715781894100,1.07,-0.03,-0.04,-8.36,-24.48,191.47
656,1715781894110,1.0372592592592593,0.006592592592592594,-0.0322962962962963,-5.907222222222222,-25.627222222222223,189.2088888888889
657,1715781894120,0.9,0.16,0.0,18.13,-36.87,167.05
658,1715781894130,0.9,0.16,0.0,18.13,-36.87,167.05
659,1715781894140,0.9,0.16,0.0,18.13,-36.870000000000005,167.05
660,1715781894150,0.9280645161290323,0.1338709677419355,-0.001935483870967742,17.74,-31.110967741935482,169.59032258064516
661,1715781894160,1.19,-0.11,-0.02,14.1,22.64,193.3
662,1715781894170,1.19,-0.11,-0.02,14.1,22.64,193.3
663,1715781894180,1.19,-0.11,-0.02,14.1,22.64,193.3
664,1715781894190,1.1591119691119691,-0.0849034749034749,-0.029652509652509654,15.125096525096525,20.201776061776062,189.42355212355213
665,1715781894200,1.03,0.02,-0.07,19.41,10.01,173.22
666,1715781894210,1.03,0.02,-0.07,19.41,10.01,173.22
667,1715781894220,1.03,0.02,-0.07,19.41,10.01,173.22
668,1715781894230,1.009315589353612,-0.03688212927756654,-0.06482889733840304,14.324714828897338,7.1503041825095055,164.28863117870722
669,1715781894240,0.9900000000000001,-0.09,-0.060000000000000005,7.14,3.11,151.67
670,1715781894250,0.99,-0.09,-0.06,7.140000000000001,3.11,151.67
671,1715781894260,0.99,-0.09,-0.06,7.14,3.11,151.67
672,1715781894270,0.9804568527918782,-0.14725888324873096,-0.060000000000000005,0.2628426395939083,29.583096446700505,157.06086294416244
673,1715781894280,0.98,-0.15,-0.06,-4.15,46.57,160.52
674,1715781894290,0.98,-0.15,-0.06,-4.15,46.57,160.52
675,1715781894300,0.978046875,-0.15390625,-0.06,-4.15,46.57,160.52
676,1715781894310,0.9299999999999999,-0.25,-0.05999999999999999,-8.778669527896994,8.705965665236052,148.7112017167382
677,1715781894320,0.93,-0.25,-0.06,-9.03,6.65,148.07
678,1715781894330,0.93,-0.25,-0.05999999999999999,-9.03,6.65,148.07
679,1715781894340,0.93,-0.25,-0.06,-9.03,6.65,148.07
680,1715781894350,0.93,-0.25,-0.06,-9.03,6.65,148.07
681,1715781894360,0.93,-0.25,-0.06,-9.03,6.65,148.07
682,1715781894370,0.93,-0.25,-0.06,-9.03,6.65,148.07
683,1715781894380,0.93,-0.25,-0.06,-9.03,6.65,148.07
684,1715781894390,0.93,-0.25,-0.06,-9.03,6.65,148.07
685,1715781894400,0.93,-0.25,-0.060000000000000005,-9.03,6.65,148.07
686,1715781894410,1.1822264150943396,-0.3959622641509434,0.018792452830188676,-19.231584905660377,14.916528301886792,141.45449056603775
687,1715781894420,1.29,-0.51,0.06,-7.57,59.39,146.48
688,1715781894430,1.29,-0.51,0.06,-7.57,59.39,146.48
689,1715781894440,1.29,-0.51,0.05999999999999999,-7.57,59.39,146.48
690,1715781894450,1.286,-0.504,0.052,-7.862,47.89,139.914
691,1715781894460,1.27,-0.48,0.02,-9.03,1.89,113.65
692,1715781894470,1.27,-0.48,0.02,-9.03,1.89,113.65
693,1715781894480,1.27,-0.48,0.02,-9.03,1.89,113.65
694,1715781894490,1.2767136150234741,-0.5269953051643192,0.03342723004694836,-6.280704225352112,23.348028169014086,108.66971830985916
695,1715781894500,1.28,-0.55,0.04,-2.93,49.5,102.6
696,1715781894510,1.28,-0.55,0.04,-2.93,49.5,102.6
697,1715781894520,1.28,-0.55,0.04,-2.93,49.5,102.6
698,1715781894530,1.2150627615062761,-0.5256485355648536,0.007531380753138075,-5.92163179916318,18.494728033472803,89.63426778242678
699,1715781894540,1.2,-0.52,0.0,-7.93,-2.32,80.93
700,1715781894550,1.2,-0.52,0.0,-7.93,-2.32,80.93
701,1715781894560,,,,,,
702,1715781894570,1.2578571428571428,-0.5778571428571428,0.1157142857142857,-6.811428571428571,30.69714285714286,62.45428571428572
703,1715781894580,1.26,-0.58,0.12,-6.77,31.920000000000005,61.77
704,1715781894590,1.26,-0.58,0.12,-6.77,31.92,61.77
705,1715781894600,1.2475697211155379,-0.5790438247011952,0.10948207171314742,-6.77,31.92,61.77
706,1715781894610,1.13,-0.5700000000000001,0.01,-6.1172532188841195,-1.97412017167382,44.93497854077253
707,1715781894620,1.13,-0.57,0.01,-6.1,-2.87,44.49
708,1715781894630,1.13,-0.57,0.01,-6.1,-2.87,44.49
709,1715781894640,1.1373725490196078,-0.5755294117647058,0.022901960784313724,-5.934941176470588,-3.1947058823529413,42.11784313725491
710,1715781894650,1.17,-0.6,0.08,-4.27,-6.47,18.19
711,1715781894660,1.17,-0.6,0.08,-4.27,-6.47,18.19
712,1715781894670,1.17,-0.6,0.08,-4.27,-6.47,18.19
713,1715781894680,1.1664102564102563,-0.6,0.0782051282051282,-4.27,-6.47,18.19
714,1715781894690,1.13,-0.6,0.05999999999999999,0.9811070110701109,2.1253874538745383,5.360479704797048
715,1715781894700,1.13,-0.6,0.06,1.1,2.32,5.07
716,1715781894710,1.13,-0.6,0.06,1.1,2.3200000000000003,5.07
717,1715781894720,1.1047211895910782,-0.6,0.028401486988847584,0.145910780669145,-1.0381784386617101,-6.745613382899629
718,1715781894730,1.09,-0.6,0.01,-0.67,-3.9100000000000006,-16.85
719,1715781894740,1.09,-0.6,0.01,-0.67,-3.91,-16.85
720,1715781894750,1.09,-0.6,0.01,-0.67,-3.91,-16.85
721,1715781894760,1.20336,-0.61744,0.0536,4.71308,8.367799999999999,-26.07032
722,1715781894770,1.22,-0.62,0.05999999999999999,7.2,14.04,-30.33
723,1715781894780,1.22,-0.62,0.06,7.2,14.04,-30.33
724,1715781894790,1.2199999999999998,-0.6199999999999999,0.06,7.2,14.04,-30.33
725,1715781894800,1.1305263157894738,-0.5842105263157894,0.00631578947368421,3.1845175438596494,12.241491228070176,-50.496447368421045
726,1715781894810,1.12,-0.58,0.0,2.69,12.02,-52.98
727,1715781894820,1.12,-0.58,0.0,2.69,12.02,-52.98
728,1715781894830,1.1616603773584906,-0.595622641509434,0.01041509433962264,3.006037735849057,11.450188679245281,-55.444150943396224
729,1715781894840,1.36,-0.67,0.06,6.04,5.98,-79.1
730,1715781894850,1.36,-0.67,0.06,6.04,5.98,-79.1
731,1715781894860,1.36,-0.67,0.05999999999999999,6.04,5.98,-79.1
732,1715781894870,1.309268292682927,-0.6382926829268293,0.05048780487804878,5.913536585365854,8.169268292682927,-83.17378048780488
733,1715781894880,1.2,-0.57,0.03,5.43,16.54,-98.75
734,1715781894890,1.2,-0.57,0.030000000000000002,5.43,16.54,-98.75
735,1715781894900,1.2,-0.5699999999999998,0.03,5.43,16.54,-98.75
736,1715781894910,1.2084644194756553,-0.5615355805243446,0.05116104868913858,6.1066666666666665,16.32820224719101,-100.89838951310861
737,1715781894920,1.22,-0.55,0.08,11.66,14.59,-118.53
738,1715781894930,1.22,-0.55,0.08,11.66,14.59,-118.53
739,1715781894940,1.22,-0.55,0.08,11.66,14.59,-118.53
740,1715781894950,1.187560975609756,-0.5221951219512195,0.07073170731707316,11.311382113821137,10.466504065040649,-121.82280487804879
741,1715781894960,1.15,-0.49,0.06,10.38,-0.55,-130.62
742,1715781894970,1.15,-0.49,0.06,10.38,-0.55,-130.62
743,1715781894980,1.15,-0.49,0.06,10.38,-0.55,-130.62
744,1715781894990,1.2112121212121212,-0.4440909090909091,0.06,10.961818181818183,-0.4943181818181818,-132.6859090909091
745,1715781895000,1.23,-0.43,0.060000000000000005,15.5,-0.060000000000000005,-148.8
746,1715781895010,1.23,-0.43,0.06,15.5,-0.06,-148.8
747,1715781895020,1.23,-0.43,0.06,15.5,-0.06,-148.8
748,1715781895030,1.1659922178988325,-0.3934241245136187,0.08743190661478599,10.666381322957198,-7.314163424124514,-157.33167315175098
749,1715781895040,1.16,-0.39,0.09,9.03,-9.77,-160.22
750,1715781895050,1.16,-0.39,0.09,9.03,-9.77,-160.22
751,1715781895060,1.16,-0.38620853080568723,0.08848341232227487,9.481563981042653,-9.010947867298578,-160.61317535545024
752,1715781895070,1.16,-0.29,0.05,20.94,10.25,-170.59
753,1715781895080,1.16,-0.29,0.05,20.94,10.25,-170.59
754,1715781895090,1.16,-0.29,0.05,20.94,10.25,-170.59
755,1715781895100,1.1104761904761904,-0.2584848484848485,0.05,18.893030303030304,8.205151515151515,-172.9339393939394
756,1715781895110,1.05,-0.22,0.05,11.29,0.61,-181.64
757,1715781895120,1.05,-0.22,0.05,11.29,0.61,-181.64
758,1715781895130,1.05,-0.22,0.05,11.29,0.61,-181.64
759,1715781895140,1.0545588235294119,-0.1789705882352941,0.05911764705882354,11.408897058823529,0.530735294117647,-182.08404411764704
760,1715781895150,1.06,-0.13,0.07,12.76,-0.37,-187.13
761,1715781895160,1.06,-0.13,0.07,12.76,-0.37,-187.13
762,1715781895170,1.06,-0.13,0.07,12.76,-0.37,-187.13
763,1715781895180,0.9680753138075314,-0.045146443514644356,0.04171548117154812,9.539916317991631,4.547154811715481,-191.21493723849372
764,1715781895190,0.93,-0.01,0.030000000000000002,6.84,8.67,-194.64
765,1715781895200,0.93,-0.01,0.03,6.84,8.67,-194.64
766,1715781895210,0.93,-0.009999999999999998,0.03,6.84,8.67,-194.64
767,1715781895220,0.8501123595505617,0.05213483146067416,0.05662921348314606,11.063595505617977,5.932921348314608,-192.57932584269662
768,1715781895230,0.84,0.06,0.06,12.21,5.19,-192.02
769,1715781895240,0.84,0.06,0.06,12.21,5.19,-192.02
770,1715781895250,0.84,0.06,0.06,12.21,5.19,-192.02
771,1715781895260,0.7028571428571428,0.2363265306122449,0.0012244897959183673,-8.478979591836735,1.4773469387755103,-197.99551020408163
772,1715781895270,0.7,0.24,0.0,-8.91,1.4,-198.12
773,1715781895280,0.7,0.24,0.0,-8.91,1.4,-198.12
774,1715781895290,0.681123595505618,0.2565168539325843,0.014157303370786516,-7.153970037453184,0.18007490636704115,-196.59700374531835
775,1715781895300,0.62,0.31,0.06,4.88,-8.18,-186.16
776,1715781895310,0.62,0.31,0.06,4.88,-8.18,-186.16
777,1715781895320,0.62,0.31,0.06,4.88,-8.18,-186.16
778,1715781895330,0.6269747899159663,0.34138655462184875,0.05651260504201681,7.297647058823529,-1.2245378151260502,-181.61966386554624
779,1715781895340,0.64,0.4,0.05,14.47,19.41,-168.15
780,1715781895350,0.64,0.4,0.05,14.47,19.409999999999997,-168.15
781,1715781895360,0.64,0.4,0.05,14.47,19.41,-168.15
782,1715781895370,0.507109375,0.48226562500000003,0.043671875,13.932109375,11.580703125,-170.751796875
783,1715781895380,0.43,0.53,0.04,13.12,-0.24,-174.68
784,1715781895390,0.43,0.53,0.04,13.12,-0.24,-174.68
785,1715781895400,0.43,0.53,0.04,13.12,-0.24,-174.68
786,1715781895410,0.3478137651821862,0.5945748987854251,0.02825910931174089,18.73012145748988,2.9754655870445346,-163.44469635627533
787,1715781895420,0.29,0.64,0.02,28.02,8.3,-144.84
788,1715781895430,0.29,0.64,0.02,28.02,8.3,-144.84
789,1715781895440,0.29,0.64,0.02,28.019999999999996,8.3,-144.84
