id,timestamp,acc_x,acc_y,acc_z,gyro_x,gyro_y,gyro_z
3.0,2024-05-10 14:36:09.319105280,-2.23,-5.91,6.55,-157.84,-67.5,35.77
3.0,2024-05-10 14:36:09.325001472,-0.9453846153846155,-4.694615384615385,4.426923076923077,165.3733603238866,199.2485829959514,183.93153846153845
3.0,2024-05-10 14:36:09.335110912,-0.56,-4.33,3.79,311.77,320.07,251.04
3.0,2024-05-10 14:36:09.345045760,-0.56,-4.33,3.79,311.77,320.07,251.04
3.0,2024-05-10 14:36:09.354901248,-0.56,-4.33,3.79,311.77,320.07,251.04
3.0,2024-05-10 14:36:09.364769792,1.0419762845849803,-3.5580632411067192,0.4366403162055336,346.3162450592885,445.1486561264822,354.74513833992097
3.0,2024-05-10 14:36:09.374730240,1.37,-3.4,-0.25,353.39,470.76,375.98
3.0,2024-05-10 14:36:09.384688128,1.37,-3.4,-0.25,353.39,470.76,375.98
3.0,2024-05-10 14:36:09.395080960,1.640236220472441,-3.1318110236220473,-0.6533070866141732,358.0558267716535,453.5055118110236,376.49874015748037
3.0,2024-05-10 14:36:09.405376000,2.69,-2.09,-2.22,402.77,288.15,381.47
3.0,2024-05-10 14:36:09.415145216,2.69,-2.09,-2.22,402.77,288.15,381.47
3.0,2024-05-10 14:36:09.424798720,2.69,-2.09,-2.22,402.77,288.15,381.47
3.0,2024-05-10 14:36:09.434803200,2.865852534562212,-2.0264976958525347,-2.0148387096774196,402.77,288.15,381.47
3.0,2024-05-10 14:36:09.445084416,3.41,-1.83,-1.3800000000000001,402.77,245.47902953586498,298.54721518987344
3.0,2024-05-10 14:36:09.455207168,3.41,-1.83,-1.38,402.77,241.76,291.32
3.0,2024-05-10 14:36:09.464918272,3.41,-1.83,-1.38,402.77,241.76,291.32
3.0,2024-05-10 14:36:09.474772480,3.318898678414097,-1.8589867841409693,-1.1729515418502203,349.9955506607929,306.31726872246696,328.62352422907486
3.0,2024-05-10 14:36:09.484551680,3.19,-1.9,-0.88,231.63,451.11,412.29
3.0,2024-05-10 14:36:09.494299904,3.19,-1.9,-0.88,231.63,451.11,412.29
3.0,2024-05-10 14:36:09.504593408,3.19,-1.9,-0.88,231.63,451.11,412.29
3.0,2024-05-10 14:36:09.514797568,2.7903831417624523,-1.871455938697318,-0.8057854406130268,160.44164750957853,445.95045977011495,447.2332950191571
3.0,2024-05-10 14:36:09.524782592,2.49,-1.85,-0.75,81.79,440.25,485.84
3.0,2024-05-10 14:36:09.535068928,2.49,-1.85,-0.75,81.79,440.25,485.84
3.0,2024-05-10 14:36:09.545097728,2.49,-1.85,-0.75,81.78999999999999,440.25,485.84000000000003
3.0,2024-05-10 14:36:09.555046912,2.2062043795620436,-1.9288321167883211,-0.545036496350365,95.11773722627738,244.1200729927007,454.6078832116788
3.0,2024-05-10 14:36:09.564897280,2.13,-1.95,-0.49,101.01,157.41,440.8
3.0,2024-05-10 14:36:09.574364928,2.13,-1.95,-0.49,101.01,157.41,440.8
3.0,2024-05-10 14:36:09.584393216,2.133238866396761,-1.9538866396761134,-0.4856275303643725,101.01,157.41,440.8
3.0,2024-05-10 14:36:09.594949888,2.33,-2.19,-0.22,146.58011235955055,71.64456928838952,434.8701498127341
3.0,2024-05-10 14:36:09.605129216,2.33,-2.19,-0.22,150.27,64.7,434.39
3.0,2024-05-10 14:36:09.615044864,2.33,-2.19,-0.22,150.27,64.7,434.39
3.0,2024-05-10 14:36:09.624897536,2.33,-2.19,-0.22,150.27,64.7,434.39
3.0,2024-05-10 14:36:09.635118848,2.5637078651685394,-2.2169662921348317,-0.32786516853932585,135.51044943820224,134.7044943820225,438.17426966292135
3.0,2024-05-10 14:36:09.645178368,2.59,-2.22,-0.34,133.85,142.58,438.6
3.0,2024-05-10 14:36:09.654907648,2.59,-2.22,-0.34,133.85,142.58,438.6
3.0,2024-05-10 14:36:09.665209856,2.9537358490566037,-2.3636603773584905,-0.30026415094339626,101.172,168.20200000000003,461.41400000000004
3.0,2024-05-10 14:36:09.675257344,3.78,-2.69,-0.21,-29.54,270.69,552.67
3.0,2024-05-10 14:36:09.684992768,3.78,-2.69,-0.21,-29.54,270.69,552.67
3.0,2024-05-10 14:36:09.695174912,3.7800000000000002,-2.69,-0.21,-29.54,270.69,552.67
3.0,2024-05-10 14:36:09.705095424,4.237868852459016,-2.3204918032786885,-0.8847540983606558,-0.7598360655737688,241.3831147540984,509.60147540983604
3.0,2024-05-10 14:36:09.714590976,4.92,-1.77,-1.89,73.73,165.53,398.13
3.0,2024-05-10 14:36:09.724859136,4.92,-1.77,-1.89,73.73,165.53,398.13
3.0,2024-05-10 14:36:09.735208704,4.92,-1.77,-1.89,73.73,165.53,398.13
3.0,2024-05-10 14:36:09.744825600,4.92,-1.77,-1.89,73.73,165.53,398.13
3.0,2024-05-10 14:36:09.755028480,6.099398496240601,0.07518796992481204,-3.1835338345864663,-16.370338345864663,118.21139097744361,293.2871804511278
3.0,2024-05-10 14:36:09.765139200,6.16,0.17,-3.25,-21.0,115.78,287.9
3.0,2024-05-10 14:36:09.774729216,6.16,0.17,-3.25,-21.0,115.78,287.9
3.0,2024-05-10 14:36:09.784928000,6.2812643678160915,0.695478927203065,-3.460191570881226,-62.279386973180074,99.340153256705,162.1495019157088
3.0,2024-05-10 14:36:09.794854144,6.31,0.82,-3.51,-100.22,84.23,46.57
3.0,2024-05-10 14:36:09.804909824,6.31,0.82,-3.51,-100.22,84.23,46.57
3.0,2024-05-10 14:36:09.815077376,6.31,0.82,-3.51,-100.22,84.23,46.57
3.0,2024-05-10 14:36:09.825223168,6.31,0.82,-3.51,-100.22,84.23,46.57
3.0,2024-05-10 14:36:09.835201280,6.309999999999999,0.8199999999999998,-3.5100000000000002,-100.22,84.23,46.57
3.0,2024-05-10 14:36:09.845206272,6.31,0.82,-3.51,-100.22,84.23,46.57
3.0,2024-05-10 14:36:09.854907648,5.78297619047619,0.6616666666666666,-2.9648809523809523,-97.1822619047619,65.84071428571428,-57.37130952380952
3.0,2024-05-10 14:36:09.864932096,3.9799999999999995,0.12,-1.1,-86.79,2.93,-412.96
3.0,2024-05-10 14:36:09.875153408,3.98,0.12,-1.1,-86.79,2.93,-412.96
3.0,2024-05-10 14:36:09.885185792,3.9799999999999995,0.12,-1.1,-86.79,2.93,-412.96
3.0,2024-05-10 14:36:09.895156992,3.4332945736434106,-0.6874418604651162,-1.1672868217054262,-99.66837209302325,2.4339534883720932,-477.96093023255816
3.0,2024-05-10 14:36:09.905211136,3.33,-0.84,-1.18,-107.3,2.14,-516.48
3.0,2024-05-10 14:36:09.915036416,3.33,-0.84,-1.18,-107.3,2.14,-516.48
3.0,2024-05-10 14:36:09.925307904,3.33,-0.84,-1.18,-107.3,2.14,-516.48
3.0,2024-05-10 14:36:09.935390208,3.0959448818897637,-1.58251968503937,-1.3414173228346455,-118.38,-19.530000000000005,-553.805
3.0,2024-05-10 14:36:09.945112832,3.04,-1.76,-1.38,-129.46,-41.2,-591.13
3.0,2024-05-10 14:36:09.954889216,3.04,-1.7599999999999998,-1.38,-129.46,-41.2,-591.13
3.0,2024-05-10 14:36:09.965026304,3.04,-1.76,-1.38,-129.46,-41.2,-591.13
3.0,2024-05-10 14:36:09.975244800,3.1623849372384933,-2.437824267782427,-1.2011297071129707,-140.62882845188284,-109.26803347280335,-590.0666945606695
3.0,2024-05-10 14:36:09.985147904,3.17,-2.48,-1.19,-143.01,-123.78,-589.84
3.0,2024-05-10 14:36:09.994437120,3.17,-2.48,-1.19,-143.01,-123.78,-589.84
3.0,2024-05-10 14:36:10.004834048,3.17,-2.48,-1.19,-143.01,-123.78,-589.84
3.0,2024-05-10 14:36:10.014881792,3.17,-2.48,-1.19,-143.01,-123.78,-589.84
3.0,2024-05-10 14:36:10.024879616,3.17,-2.48,-1.19,-143.01,-123.78,-589.84
3.0,2024-05-10 14:36:10.035112704,3.0614285714285714,-2.4028571428571426,-1.1557142857142857,-145.5454887218045,-119.65127819548873,-582.7828571428572
3.0,2024-05-10 14:36:10.045025536,2.768666666666667,-2.0766666666666667,-1.2300000000000002,-166.9720833333333,-85.03291666666668,-503.0749583333333
3.0,2024-05-10 14:36:10.054582016,2.75,-1.96,-1.37,-164.25,-89.84,-483.03
3.0,2024-05-10 14:36:10.064874240,2.75,-1.96,-1.37,-164.25,-89.84,-483.03
3.0,2024-05-10 14:36:10.074921472,2.75,-1.96,-1.37,-164.25,-89.84,-483.03
3.0,2024-05-10 14:36:10.084803072,2.893868312757202,-1.7858436213991769,-1.6804526748971194,-126.79156378600823,-209.16181069958847,-490.02259259259256
3.0,2024-05-10 14:36:10.094654976,2.94,-1.73,-1.78,-107.36,-271.06,-493.65
3.0,2024-05-10 14:36:10.105273088,2.94,-1.73,-1.78,-107.36,-271.06,-493.65
3.0,2024-05-10 14:36:10.115475200,2.94,-1.73,-1.78,-107.36,-271.06,-493.65
3.0,2024-05-10 14:36:10.124989696,3.2566523605150213,-1.5530472103004291,-2.227038626609442,-180.8543347639485,-318.7445922746781,-485.0348068669528
3.0,2024-05-10 14:36:10.134616064,3.28,-1.54,-2.26,-209.9,-337.59,-481.63
3.0,2024-05-10 14:36:10.144678400,3.28,-1.54,-2.26,-209.9,-337.59,-481.63
3.0,2024-05-10 14:36:10.155059456,3.009777777777778,-1.8608888888888888,-2.108,-218.98888888888888,-393.82703703703703,-446.1411111111111
3.0,2024-05-10 14:36:10.165063936,2.96,-1.92,-2.08,-222.17,-413.51,-433.72
3.0,2024-05-10 14:36:10.174993920,2.96,-1.92,-2.08,-222.17,-413.51,-433.72
3.0,2024-05-10 14:36:10.185019392,2.854574898785425,-1.9965182186234818,-1.949919028340081,-222.17,-413.51,-433.72
3.0,2024-05-10 14:36:10.194793472,1.72,-2.82,-0.55,-304.3890438247012,-348.0552589641435,-319.73330677290835
3.0,2024-05-10 14:36:10.205241344,1.72,-2.82,-0.55,-315.55,-339.17,-304.26
3.0,2024-05-10 14:36:10.215099904,1.72,-2.82,-0.55,-315.55,-339.17,-304.26
3.0,2024-05-10 14:36:10.224962816,1.0878181818181818,-3.5627272727272725,0.5191818181818181,-315.55,-339.17,-304.26
3.0,2024-05-10 14:36:10.235151360,-1.94,-7.12,5.64,-643.3761363636364,-322.1752272727272,-86.66045454545454
3.0,2024-05-10 14:36:10.244808192,-1.94,-7.12,5.64,-651.0,-321.78,-81.6
3.0,2024-05-10 14:36:10.254699520,-1.94,-7.12,5.64,-651.0,-321.78,-81.6
3.0,2024-05-10 14:36:10.264555008,-1.7110116731517508,-6.833229571984436,5.8647081712062255,-576.4316342412451,-267.43264591439686,-45.52490272373541
3.0,2024-05-10 14:36:10.274898944,-0.87,-5.78,6.69,9.83,159.85,238.1
3.0,2024-05-10 14:36:10.285149440,-0.87,-5.78,6.69,9.83,159.85,238.1
3.0,2024-05-10 14:36:10.294853632,-0.87,-5.78,6.69,9.83,159.85,238.1
3.0,2024-05-10 14:36:10.304946688,-0.08952755905511808,-4.888031496062992,4.464724409448818,143.9370866141732,243.5251968503937,272.9838582677165
3.0,2024-05-10 14:36:10.315252736,0.81,-3.86,1.9,388.31,396.0,336.55
3.0,2024-05-10 14:36:10.325041152,0.81,-3.86,1.9,388.31,396.0,336.55
3.0,2024-05-10 14:36:10.335125760,0.81,-3.86,1.9,388.31,396.0,336.55
3.0,2024-05-10 14:36:10.344827392,1.7187136929460582,-3.2541908713692944,-0.5171784232365144,452.0182987551867,353.91759336099585,330.3082572614108
3.0,2024-05-10 14:36:10.354898688,2.31,-2.86,-2.09,514.16,312.87,324.22
3.0,2024-05-10 14:36:10.364869376,2.31,-2.86,-2.09,514.16,312.87,324.22
3.0,2024-05-10 14:36:10.375158272,2.31,-2.86,-2.09,514.16,312.87,324.22
3.0,2024-05-10 14:36:10.385118720,2.7584,-2.3964,-2.0976,527.3883636363636,241.47785454545456,243.89956363636367
3.0,2024-05-10 14:36:10.395235840,2.9,-2.25,-2.1,533.51,208.44,206.73
3.0,2024-05-10 14:36:10.405127168,2.9,-2.25,-2.1,533.51,208.44,206.73
3.0,2024-05-10 14:36:10.414782208,2.9,-2.25,-2.1,533.51,208.44,206.73
3.0,2024-05-10 14:36:10.424728576,3.8891891891891897,-2.3347876447876446,-1.3274903474903474,482.2739382239382,408.49281853281855,315.86173745173744
3.0,2024-05-10 14:36:10.435102208,3.9499999999999997,-2.34,-1.28,471.5,450.56,338.81
3.0,2024-05-10 14:36:10.444837888,3.95,-2.34,-1.28,471.5,450.56,338.81
3.0,2024-05-10 14:36:10.454851840,3.95,-2.34,-1.28,471.5,450.56,338.81
3.0,2024-05-10 14:36:10.464769536,3.216784140969163,-1.4138325991189427,-1.318590308370044,36.393127753303965,656.1234361233479,462.65704845814975
3.0,2024-05-10 14:36:10.474583808,3.1900000000000004,-1.38,-1.32,18.43,664.6099999999999,467.77
3.0,2024-05-10 14:36:10.484695040,3.19,-1.38,-1.32,18.43,664.61,467.77
3.0,2024-05-10 14:36:10.494822656,3.0217131474103582,-1.400398406374502,-1.0395219123505977,-1.1588446215139436,635.2936653386454,481.6122310756972
3.0,2024-05-10 14:36:10.505341696,2.53,-1.46,-0.22,-104.49,480.65,554.63
3.0,2024-05-10 14:36:10.515570944,2.53,-1.46,-0.22,-104.49,480.65,554.63
3.0,2024-05-10 14:36:10.525105920,2.53,-1.46,-0.22,-104.48999999999998,480.65,554.63
3.0,2024-05-10 14:36:10.534657024,2.339402390438247,-1.4185657370517928,-0.19099601593625498,-114.2529482071713,451.56832669322705,544.4527091633466
3.0,2024-05-10 14:36:10.544789504,2.07,-1.36,-0.15,-153.5,334.66,503.54
3.0,2024-05-10 14:36:10.554756608,2.07,-1.36,-0.15,-153.5,334.66,503.54
3.0,2024-05-10 14:36:10.564611328,2.07,-1.36,-0.15,-153.5,334.66,503.54
3.0,2024-05-10 14:36:10.574542336,1.997905138339921,-1.5492490118577076,-0.2100790513833992,-145.15802371541503,272.0456126482214,471.124347826087
3.0,2024-05-10 14:36:10.584569856,1.83,-1.99,-0.35,-125.73,126.22000000000001,395.63
3.0,2024-05-10 14:36:10.594669056,1.83,-1.99,-0.35,-125.73,126.22,395.63
3.0,2024-05-10 14:36:10.605073920,1.83,-1.9899999999999998,-0.35,-125.73,126.22,395.63
3.0,2024-05-10 14:36:10.615455232,2.5099209486166005,-2.626521739130435,-0.35723320158102767,-120.4809881422925,-18.102529644268774,398.0205138339921
3.0,2024-05-10 14:36:10.624994304,2.77,-2.87,-0.36,-117.43,-101.99,399.41
3.0,2024-05-10 14:36:10.634871808,2.77,-2.87,-0.36,-117.43,-101.99,399.41
3.0,2024-05-10 14:36:10.645022208,2.77,-2.87,-0.36,-117.43,-101.99,399.41
3.0,2024-05-10 14:36:10.655205632,5.575637065637066,-1.8685328185328187,-0.48231660231660234,-137.62362934362935,-17.078223938223935,437.7874131274131
3.0,2024-05-10 14:36:10.665272832,6.44,-1.56,-0.52,-153.5,49.68,467.96
3.0,2024-05-10 14:36:10.675270144,6.44,-1.56,-0.52,-153.5,49.68,467.96
3.0,2024-05-10 14:36:10.684998400,6.44,-1.56,-0.52,-153.5,49.67999999999999,467.96
3.0,2024-05-10 14:36:10.694899712,6.8531818181818185,0.8961363636363636,-1.4075757575757575,-119.94193181818183,-3.5568181818181808,343.68833333333333
3.0,2024-05-10 14:36:10.705402112,6.98,1.65,-1.68,-102.29,-31.56,278.32
3.0,2024-05-10 14:36:10.715171328,6.98,1.65,-1.68,-102.28999999999999,-31.56,278.32
3.0,2024-05-10 14:36:10.724921856,6.98,1.65,-1.68,-102.29,-31.56,278.32
3.0,2024-05-10 14:36:10.735342336,7.172164502164502,2.3852380952380954,-2.198008658008658,-72.03155844155845,-62.36805194805194,102.71350649350649
3.0,2024-05-10 14:36:10.744960768,7.21,2.53,-2.3,-51.64,-83.13,-15.63
3.0,2024-05-10 14:36:10.755020288,7.21,2.53,-2.3,-51.64,-83.13,-15.63
3.0,2024-05-10 14:36:10.765171200,7.210000000000001,2.53,-2.3,-51.64,-83.13000000000001,-15.63
3.0,2024-05-10 14:36:10.774843648,5.3233061224489795,1.0975102040816327,-1.3653877551020408,-102.01297959183674,-55.83408163265306,-227.49
3.0,2024-05-10 14:36:10.784722432,5.05,0.89,-1.23,-109.31,-51.88,-258.18
3.0,2024-05-10 14:36:10.794700800,5.05,0.89,-1.23,-109.31,-51.88,-258.18
3.0,2024-05-10 14:36:10.804640256,4.715037593984962,0.7187969924812031,-1.1654887218045111,-106.96278195488722,-46.729699248120305,-281.7022932330827
3.0,2024-05-10 14:36:10.814525696,3.7,0.2,-0.97,-94.78999999999999,-20.02,-403.69
3.0,2024-05-10 14:36:10.824781824,3.7,0.2,-0.97,-94.79,-20.02,-403.69
3.0,2024-05-10 14:36:10.834969600,3.7,0.2,-0.97,-94.79,-20.02,-403.68999999999994
3.0,2024-05-10 14:36:10.844830720,3.5054393305439335,-0.09811715481171548,-0.8476150627615062,-102.16564853556486,-17.177071129707112,-416.4521338912134
3.0,2024-05-10 14:36:10.855187200,3.08,-0.75,-0.58,-128.05,-7.2,-461.24
3.0,2024-05-10 14:36:10.864976640,3.08,-0.75,-0.5799999999999998,-128.05,-7.2,-461.24
3.0,2024-05-10 14:36:10.874604032,3.08,-0.75,-0.58,-128.05,-7.2,-461.24
3.0,2024-05-10 14:36:10.885226496,2.9957083333333334,-1.107,-0.6395,-144.44866666666667,16.62625,-457.55275
3.0,2024-05-10 14:36:10.895418368,2.91,-1.4699999999999998,-0.7,-168.21,51.15,-452.21
3.0,2024-05-10 14:36:10.905005312,2.91,-1.47,-0.7,-168.21,51.15,-452.21
3.0,2024-05-10 14:36:10.915111936,2.91,-1.47,-0.7,-168.21,51.15,-452.21
3.0,2024-05-10 14:36:10.924989440,2.9704800000000002,-1.73208,-0.91504,-133.4394,22.5732,-481.775
3.0,2024-05-10 14:36:10.935300608,3.0,-1.86,-1.02,-103.82,-1.77,-506.96
3.0,2024-05-10 14:36:10.945089536,3.0,-1.8600000000000003,-1.02,-103.82000000000001,-1.77,-506.96
3.0,2024-05-10 14:36:10.954878464,3.0,-1.86,-1.02,-103.82,-1.77,-506.96
3.0,2024-05-10 14:36:10.965001984,3.0,-1.86,-1.02,-103.82,-1.77,-506.96
3.0,2024-05-10 14:36:10.975297280,3.0,-1.86,-1.02,-103.82,-1.77,-506.96000000000004
3.0,2024-05-10 14:36:10.984700928,3.0,-1.86,-1.02,-103.82,-1.77,-506.96
3.0,2024-05-10 14:36:10.994598912,3.0198326359832635,-1.8867782426778243,-1.0461506276150627,-90.26439330543933,-34.33188284518828,-520.6974058577406
3.0,2024-05-10 14:36:11.005201664,3.18,-1.94,-1.4,-62.81,-100.28,-548.52
3.0,2024-05-10 14:36:11.015093248,3.18,-1.94,-1.4,-62.81,-100.28,-548.52
3.0,2024-05-10 14:36:11.024920832,3.18,-1.94,-1.4,-62.81000000000001,-100.28,-548.52
3.0,2024-05-10 14:36:11.035284736,3.18,-1.94,-1.4,-88.235,-125.23571428571428,-542.0078571428572
3.0,2024-05-10 14:36:11.045325312,3.18,-1.94,-1.4,-102.36,-139.1,-538.39
3.0,2024-05-10 14:36:11.055523584,3.18,-1.94,-1.4,-102.36,-139.1,-538.39
3.0,2024-05-10 14:36:11.065430016,3.259917012448133,-1.6824896265560165,-1.3200829875518671,-144.62721991701247,-147.60672199170125,-484.6857676348548
3.0,2024-05-10 14:36:11.074778112,3.22408,-1.67624,-1.3493600000000001,-213.24896,-49.20416,-407.71768
3.0,2024-05-10 14:36:11.084812544,3.2,-1.69,-1.37,-266.3,34.18,-348.88
3.0,2024-05-10 14:36:11.094940672,3.2,-1.69,-1.37,-266.3,34.18,-348.88
3.0,2024-05-10 14:36:11.105468928,3.2,-1.69,-1.37,-266.3,34.18,-348.88
3.0,2024-05-10 14:36:11.115450112,2.701538461538462,-2.003846153846154,-1.5546153846153847,-245.90807692307692,142.29192307692304,-306.9384615384615
3.0,2024-05-10 14:36:11.125337600,2.66,-2.03,-1.57,-241.64,164.92,-298.16
3.0,2024-05-10 14:36:11.135236096,2.66,-2.03,-1.57,-241.64,164.92,-298.16
3.0,2024-05-10 14:36:11.145315584,2.66,-2.03,-1.57,-241.64,164.92,-298.16
3.0,2024-05-10 14:36:11.155332352,-0.5308461538461539,-3.065692307692308,-0.8465384615384615,-150.25538461538463,-2.5499230769230814,-473.1082307692308
3.0,2024-05-10 14:36:11.165364992,-1.53,-3.39,-0.62,-121.64,-54.99,-527.89
3.0,2024-05-10 14:36:11.174920704,-1.53,-3.39,-0.62,-121.64,-54.99,-527.89
3.0,2024-05-10 14:36:11.185218816,-2.172676056338028,-3.7690140845070426,0.19478873239436623,-135.11295774647888,-68.02943661971831,-500.7649295774648
3.0,2024-05-10 14:36:11.195437056,-5.04,-5.46,3.83,-281.07,-209.29,-206.91
3.0,2024-05-10 14:36:11.205090816,-5.04,-5.46,3.83,-281.07,-209.29,-206.91
3.0,2024-05-10 14:36:11.214967040,-5.04,-5.46,3.83,-281.07,-209.29,-206.91
3.0,2024-05-10 14:36:11.225074432,-4.635223880597015,-5.0516417910447755,3.6508955223880597,-199.21029850746268,-122.09365671641791,-118.64731343283582
3.0,2024-05-10 14:36:11.235383552,-3.9099999999999997,-4.32,3.33,51.33,144.78,151.49
3.0,2024-05-10 14:36:11.245464832,-3.91,-4.32,3.33,51.33,144.77999999999997,151.49
3.0,2024-05-10 14:36:11.255097344,-3.91,-4.32,3.33,51.33,144.78,151.49
3.0,2024-05-10 14:36:11.264822272,-2.683333333333333,-3.9155555555555557,2.258888888888889,128.3437606837607,162.5937606837607,191.56068376068376
3.0,2024-05-10 14:36:11.275104000,-1.15,-3.41,0.92,294.86,201.11,278.2
3.0,2024-05-10 14:36:11.285158656,-1.15,-3.41,0.92,294.86,201.11,278.2
3.0,2024-05-10 14:36:11.295404544,-1.15,-3.41,0.92,294.86,201.10999999999999,278.2
3.0,2024-05-10 14:36:11.304933376,0.6744343891402715,-3.207285067873303,-0.15149321266968327,331.10524886877835,217.1520814479638,336.7090497737556
3.0,2024-05-10 14:36:11.314738432,1.37,-3.13,-0.56,367.68,233.34,395.75
3.0,2024-05-10 14:36:11.324814336,1.37,-3.13,-0.56,367.68,233.34,395.75
3.0,2024-05-10 14:36:11.335072000,1.37,-3.13,-0.56,367.68,233.34,395.75
3.0,2024-05-10 14:36:11.344785152,2.5202000000000004,-2.5421199999999997,-1.19048,371.14212,213.72132000000002,421.02152
3.0,2024-05-10 14:36:11.355185152,2.72,-2.44,-1.3,372.99,203.25,434.51
3.0,2024-05-10 14:36:11.365028096,2.72,-2.44,-1.3,372.99,203.25,434.51
3.0,2024-05-10 14:36:11.374718208,2.815555555555556,-2.3866666666666667,-1.22,371.87207885304656,204.1336917562724,434.4377777777778
3.0,2024-05-10 14:36:11.385211904,3.58,-1.9599999999999997,-0.58,310.61,252.55999999999997,430.48
3.0,2024-05-10 14:36:11.394926336,3.58,-1.96,-0.58,310.61,252.56,430.4800000000001
3.0,2024-05-10 14:36:11.404873472,3.58,-1.96,-0.58,310.61,252.56,430.48
3.0,2024-05-10 14:36:11.415027712,3.369812734082397,-1.8428464419475656,-0.46629213483146065,277.18172284644197,283.1476404494382,435.3603370786517
3.0,2024-05-10 14:36:11.424987648,2.97,-1.62,-0.25,55.6,485.9,467.71
3.0,2024-05-10 14:36:11.435244544,2.97,-1.62,-0.25,55.6,485.9,467.71
3.0,2024-05-10 14:36:11.444800256,2.97,-1.62,-0.25,55.6,485.9,467.71
3.0,2024-05-10 14:36:11.454674944,2.6447490347490348,-1.6641698841698844,-0.20181467181467183,30.07583011583012,477.13830115830115,470.7617374517374
3.0,2024-05-10 14:36:11.465199872,2.16,-1.73,-0.13,-71.53,442.26,482.91
3.0,2024-05-10 14:36:11.475522816,2.16,-1.73,-0.13,-71.53,442.26,482.91
3.0,2024-05-10 14:36:11.485283328,2.16,-1.7299999999999998,-0.13,-71.53000000000002,442.26,482.91
3.0,2024-05-10 14:36:11.495072768,1.9726591760299628,-1.8350936329588015,-0.16198501872659177,-68.77250936329588,366.3169288389513,475.19970037453186
3.0,2024-05-10 14:36:11.505238528,1.75,-1.96,-0.2,-63.78,228.82,461.24
3.0,2024-05-10 14:36:11.515379968,1.75,-1.96,-0.2,-63.78,228.82,461.24
3.0,2024-05-10 14:36:11.525087232,1.75,-1.96,-0.2,-63.78,228.82000000000002,461.24
3.0,2024-05-10 14:36:11.534732032,1.8672972972972974,-2.1331531531531533,-0.267027027027027,-47.2863063063063,143.6344144144144,447.88864864864865
3.0,2024-05-10 14:36:11.544603904,1.96,-2.27,-0.32,-18.01,-7.57,424.19
3.0,2024-05-10 14:36:11.555010304,1.96,-2.27,-0.32,-18.01,-7.57,424.19
3.0,2024-05-10 14:36:11.565304576,1.96,-2.27,-0.32,-18.01,-7.57,424.19
3.0,2024-05-10 14:36:11.575297280,2.208394160583942,-2.216131386861314,-0.21525547445255475,-20.29043795620438,-21.925985401459855,428.7748175182482
3.0,2024-05-10 14:36:11.585158144,2.7899999999999996,-2.09,0.03,-25.63,-55.54,439.51
3.0,2024-05-10 14:36:11.594850304,2.79,-2.09,0.03,-25.63,-55.54,439.51
3.0,2024-05-10 14:36:11.605055744,2.79,-2.09,0.03,-25.63,-55.54,439.51
3.0,2024-05-10 14:36:11.615077632,3.4571480144404334,-2.5951263537906137,-0.4560649819494585,-233.17129963898915,228.02433212996388,450.7037906137184
3.0,2024-05-10 14:36:11.624433920,3.49,-2.62,-0.48,-262.21,267.7,452.27
3.0,2024-05-10 14:36:11.634669312,3.49,-2.62,-0.48,-262.21,267.7,452.27
3.0,2024-05-10 14:36:11.644803072,3.8084063745019923,-2.3281274900398405,-0.6568924302788844,-256.8173705179283,258.65370517928284,449.5256972111554
3.0,2024-05-10 14:36:11.654996224,5.65,-0.64,-1.68,-139.16,61.28,389.65
3.0,2024-05-10 14:36:11.664926976,5.65,-0.64,-1.68,-139.16,61.28,389.65
3.0,2024-05-10 14:36:11.674953984,5.65,-0.64,-1.68,-139.16,61.28,389.65
3.0,2024-05-10 14:36:11.685029632,5.846359649122807,-0.455,-1.7854824561403508,-139.16,61.28,389.65
3.0,2024-05-10 14:36:11.694922496,6.86,0.5,-2.33,-64.48351694915254,-33.664915254237286,187.76271186440678
3.0,2024-05-10 14:36:11.705074432,6.86,0.5,-2.33,-32.35,-74.52,100.89
3.0,2024-05-10 14:36:11.714919424,6.86,0.5,-2.33,-32.35,-74.52,100.89
3.0,2024-05-10 14:36:11.724893952,6.667430830039526,0.5389723320158103,-2.0526086956521743,-41.62541501976285,-55.05675889328063,44.05458498023715
3.0,2024-05-10 14:36:11.734989824,6.02,0.67,-1.12,-72.81,10.38,-147.03
3.0,2024-05-10 14:36:11.744807680,6.02,0.67,-1.12,-72.81,10.38,-147.03
3.0,2024-05-10 14:36:11.755123968,6.02,0.67,-1.12,-72.81,10.38,-147.02999999999997
3.0,2024-05-10 14:36:11.764869376,5.649529411764705,0.5723137254901961,-1.072078431372549,-66.3375294117647,24.010431372549018,-183.55219607843136
3.0,2024-05-10 14:36:11.775461120,4.01,0.14,-0.86,-36.93000000000001,85.94,-349.49
3.0,2024-05-10 14:36:11.784887296,4.01,0.14,-0.8599999999999999,-36.93,85.94,-349.49
3.0,2024-05-10 14:36:11.794865920,4.01,0.14,-0.86,-36.93,85.94,-349.49
3.0,2024-05-10 14:36:11.805330944,3.755491803278688,-0.07024590163934427,-0.9263934426229508,-32.70073770491803,70.62081967213115,-380.5444262295082
3.0,2024-05-10 14:36:11.815014912,2.8600000000000003,-0.81,-1.16,-17.82,16.72,-489.81
3.0,2024-05-10 14:36:11.824580096,2.86,-0.81,-1.16,-17.82,16.72,-489.81
3.0,2024-05-10 14:36:11.835398912,2.86,-0.81,-1.16,-17.82,16.72,-489.80999999999995
3.0,2024-05-10 14:36:11.845236224,2.739183673469388,-1.1648979591836737,-0.8277551020408163,-82.24857142857142,-6.527836734693879,-510.4003673469388
3.0,2024-05-10 14:36:11.855107840,2.7,-1.28,-0.72,-114.07,-18.01,-520.57
3.0,2024-05-10 14:36:11.864985600,2.7,-1.28,-0.72,-114.07,-18.01,-520.57
3.0,2024-05-10 14:36:11.874884096,2.7,-1.28,-0.72,-114.07,-18.01,-520.57
3.0,2024-05-10 14:36:11.884816640,2.617840909090909,-1.9737878787878789,-0.8112878787878787,-120.77791666666667,5.76875,-520.8320833333333
3.0,2024-05-10 14:36:11.894924544,2.61,-2.04,-0.82,-123.54,15.56,-520.94
3.0,2024-05-10 14:36:11.904881920,2.61,-2.04,-0.82,-123.54,15.56,-520.94
3.0,2024-05-10 14:36:11.914919936,2.61,-2.04,-0.82,-123.54,15.56,-520.94
3.0,2024-05-10 14:36:11.924970752,2.6297727272727274,-2.119090909090909,-0.7112499999999999,-56.737840909090906,-54.55409090909091,-551.8348863636364
3.0,2024-05-10 14:36:11.934789376,2.63,-2.12,-0.71,-55.970000000000006,-55.36,-552.19
3.0,2024-05-10 14:36:11.944769024,2.63,-2.12,-0.71,-55.97,-55.36,-552.19
3.0,2024-05-10 14:36:11.955173120,2.654957264957265,-2.088803418803419,-0.7599145299145299,-57.56333333333333,-51.18888888888889,-549.2866666666667
3.0,2024-05-10 14:36:11.965195264,2.71,-2.02,-0.87,-70.31,-17.82,-526.06
3.0,2024-05-10 14:36:11.975160576,2.71,-2.02,-0.87,-70.31,-17.82,-526.06
3.0,2024-05-10 14:36:11.985259008,2.71,-2.02,-0.87,-70.31,-17.82,-526.06
3.0,2024-05-10 14:36:11.994917632,2.683690476190476,-2.028095238095238,-0.8902380952380953,-64.2715873015873,-25.346111111111114,-522.4612301587301
3.0,2024-05-10 14:36:12.004840704,2.58,-2.06,-0.97,-4.15,-100.28,-486.63
3.0,2024-05-10 14:36:12.014899456,2.58,-2.06,-0.97,-4.15,-100.28,-486.63
3.0,2024-05-10 14:36:12.024976896,2.58,-2.06,-0.97,-4.15,-100.28,-486.63
3.0,2024-05-10 14:36:12.035195904,2.6707860262008736,-1.848165938864629,-1.0607860262008733,0.3374235807860262,-148.5133187772926,-462.90890829694325
3.0,2024-05-10 14:36:12.045145856,2.79,-1.57,-1.18,6.23,-211.85,-431.76
3.0,2024-05-10 14:36:12.055294208,2.79,-1.57,-1.18,6.23,-211.85,-431.76
3.0,2024-05-10 14:36:12.065158400,2.79,-1.57,-1.18,6.23,-211.85,-431.76
3.0,2024-05-10 14:36:12.075185408,2.696031128404669,-1.4196498054474709,-1.405525291828794,-26.425875486381322,-327.25420233463035,-450.7841245136186
3.0,2024-05-10 14:36:12.085255936,2.64,-1.33,-1.54,-55.48,-429.93,-467.71
3.0,2024-05-10 14:36:12.095270912,2.64,-1.33,-1.54,-55.48,-429.93,-467.71
3.0,2024-05-10 14:36:12.105141248,2.64,-1.33,-1.54,-55.48,-429.93,-467.71
3.0,2024-05-10 14:36:12.115096320,2.140609756097561,-1.645,-0.4029268292682927,-160.27512195121952,-419.08630081300817,-391.02910569105694
3.0,2024-05-10 14:36:12.124758528,1.99,-1.74,-0.06,-221.8,-412.72,-346.01000000000005
3.0,2024-05-10 14:36:12.134944256,1.99,-1.74,-0.06,-221.8,-412.72,-346.01
3.0,2024-05-10 14:36:12.144979200,1.9900000000000002,-1.74,-0.06,-221.8,-412.72,-346.01
3.0,2024-05-10 14:36:12.155375360,-2.4998046875,-4.8819140625,2.464921875,-558.3465625,-182.4184375,-366.6565625
3.0,2024-05-10 14:36:12.165209344,-2.74,-5.05,2.6,-620.67,-139.77,-370.48
3.0,2024-05-10 14:36:12.175313152,-2.74,-5.05,2.6,-620.67,-139.77,-370.48
3.0,2024-05-10 14:36:12.185082368,-2.612337164750958,-5.085402298850575,3.106360153256705,-620.67,-139.77,-370.48
3.0,2024-05-10 14:36:12.195271424,-1.55,-5.38,7.32,-73.75292682926828,-242.25991869918698,-37.281138211382114
3.0,2024-05-10 14:36:12.204914688,-1.55,-5.38,7.32,-69.27,-243.1,-34.55
3.0,2024-05-10 14:36:12.214781952,-1.55,-5.38,7.32,-69.27,-243.1,-34.55
3.0,2024-05-10 14:36:12.225026816,-1.19901185770751,-4.908853754940711,5.887588932806324,-32.77750988142292,-179.33525691699606,-3.381857707509878
3.0,2024-05-10 14:36:12.235013376,-0.44,-3.89,2.79,285.83,377.38,268.74
3.0,2024-05-10 14:36:12.244501760,-0.44,-3.8900000000000006,2.79,285.83,377.38,268.74
3.0,2024-05-10 14:36:12.254968832,-0.44,-3.89,2.79,285.83,377.38,268.74
3.0,2024-05-10 14:36:12.264745216,0.49088235294117644,-3.5811764705882356,1.3429411764705883,298.75436974789915,398.8825210084034,290.0341176470588
3.0,2024-05-10 14:36:12.274536960,1.67,-3.19,-0.49,324.28,441.35,332.09
3.0,2024-05-10 14:36:12.284969216,1.67,-3.19,-0.49,324.28,441.35,332.09
3.0,2024-05-10 14:36:12.294897408,1.67,-3.19,-0.49,324.28,441.35,332.09
3.0,2024-05-10 14:36:12.304908032,1.67,-3.19,-0.49,324.28,441.35,332.09
3.0,2024-05-10 14:36:12.315258624,1.67,-3.19,-0.49,324.28,441.35,332.09
3.0,2024-05-10 14:36:12.324865024,2.0040182648401825,-2.8137899543378997,-1.0314611872146118,366.09041095890404,366.53684931506854,332.79100456621
3.0,2024-05-10 14:36:12.334737408,2.62,-2.12,-2.03,444.76,225.77,334.11
3.0,2024-05-10 14:36:12.345347840,2.917481751824818,-1.9757664233576644,-1.1555839416058393,488.6185766423357,203.91872262773722,283.3371897810219
3.0,2024-05-10 14:36:12.355169280,2.95,-1.9600000000000002,-1.06,498.17,199.16,272.28
3.0,2024-05-10 14:36:12.364765952,2.95,-1.96,-1.06,498.17,199.16,272.28
3.0,2024-05-10 14:36:12.374762496,2.9760305343511453,-1.9549618320610689,-1.046564885496183,498.17,199.16,272.28
3.0,2024-05-10 14:36:12.381605120,3.26,-1.9,-0.9,225.94826086956522,506.4255072463768,390.64202898550724
,,,,,,,
3.0,2024-05-10 14:36:12.404849664,3.26,-1.9,-0.9,174.32,564.7,413.09
3.0,2024-05-10 14:36:12.414786304,3.117794676806083,-1.8663878326996195,-0.8250190114068441,140.1770342205323,566.1338403041825,433.7945627376426
3.0,2024-05-10 14:36:12.424881408,2.71,-1.77,-0.61,-125.0,577.27,594.6
3.0,2024-05-10 14:36:12.434990080,2.71,-1.77,-0.61,-125.0,577.27,594.6
3.0,2024-05-10 14:36:12.444725760,2.71,-1.77,-0.61,-125.0,577.27,594.6
3.0,2024-05-10 14:36:12.454533376,2.5484615384615386,-1.8687179487179488,-0.5322222222222222,-137.51726495726496,532.3528632478632,598.6954273504274
3.0,2024-05-10 14:36:12.465053952,2.17,-2.1,-0.35,-187.32,353.64,614.99
3.0,2024-05-10 14:36:12.475373824,2.17,-2.1,-0.35,-187.32,353.64,614.99
3.0,2024-05-10 14:36:12.485195008,2.17,-2.1,-0.35,-187.32,353.64,614.99
3.0,2024-05-10 14:36:12.495194624,2.0893548387096774,-2.3066532258064516,-0.35504032258064516,-161.15209677419355,267.3370967741935,591.1235483870968
3.0,2024-05-10 14:36:12.505416448,2.01,-2.51,-0.36,-101.93,72.02,537.11
3.0,2024-05-10 14:36:12.515469568,2.01,-2.51,-0.36,-101.93,72.02,537.11
3.0,2024-05-10 14:36:12.525056512,2.01,-2.51,-0.36,-101.93,72.02,537.11
3.0,2024-05-10 14:36:12.535173120,2.243333333333333,-2.4233333333333333,-0.3733333333333333,1.7965917602996198,-37.507153558052444,495.41992509363297
3.0,2024-05-10 14:36:12.545034752,2.36,-2.38,-0.38,119.63,-161.93,448.06
3.0,2024-05-10 14:36:12.555004416,2.36,-2.38,-0.38,119.63,-161.93,448.06
3.0,2024-05-10 14:36:12.565095936,2.36,-2.38,-0.38,119.63,-161.93,448.05999999999995
3.0,2024-05-10 14:36:12.574822912,3.1437662337662338,-2.4537662337662334,0.016493506493506494,35.78454545454545,-94.83969696969697,422.7878787878788
3.0,2024-05-10 14:36:12.584729600,3.21,-2.46,0.05,-0.67,-65.67,411.8
3.0,2024-05-10 14:36:12.594885888,3.21,-2.46,0.05,-0.67,-65.67,411.8
3.0,2024-05-10 14:36:12.605012736,3.236875,-2.4575,0.037187500000000005,-0.67,-65.67,411.8
3.0,2024-05-10 14:36:12.615136768,4.93,-2.3,-0.77,-70.19895131086142,311.03917602996256,394.50576779026215
3.0,2024-05-10 14:36:12.625226752,4.93,-2.3,-0.77,-77.7,351.68,392.64
3.0,2024-05-10 14:36:12.635112448,4.93,-2.3,-0.77,-77.7,351.68,392.64
3.0,2024-05-10 14:36:12.645227520,5.1491999999999996,-2.0088,-0.8732,-63.0808,319.6392,374.7688
3.0,2024-05-10 14:36:12.655525632,7.67,1.34,-2.06,105.04000000000002,-48.83,169.25
3.0,2024-05-10 14:36:12.665054208,7.67,1.3399999999999999,-2.06,105.04,-48.83,169.25
3.0,2024-05-10 14:36:12.674713600,7.67,1.34,-2.06,105.04,-48.83,169.25
3.0,2024-05-10 14:36:12.684761344,7.3416417910447755,0.9623880597014925,-1.9122388059701494,79.93667910447762,-31.310708955223884,117.48649253731344
3.0,2024-05-10 14:36:12.695200000,6.67,0.19,-1.61,-5.25,28.14,-58.17
3.0,2024-05-10 14:36:12.705299456,6.67,0.19,-1.61,-5.25,28.14,-58.17
3.0,2024-05-10 14:36:12.715226624,6.67,0.19,-1.61,-5.25,28.14,-58.17
3.0,2024-05-10 14:36:12.725018368,6.345294117647059,0.29084033613445376,-1.5696638655462187,9.430588235294119,35.23936974789916,-112.09558823529412
3.0,2024-05-10 14:36:12.735012864,5.06,0.69,-1.41,69.09,64.09,-331.24
3.0,2024-05-10 14:36:12.744684800,5.06,0.69,-1.41,69.09,64.09,-331.24
3.0,2024-05-10 14:36:12.754884864,5.06,0.69,-1.41,69.09,64.09,-331.24
3.0,2024-05-10 14:36:12.764801536,4.341316872427984,-0.0713168724279836,-1.215102880658436,92.45333333333333,-3.080246913580244,-452.7441975308642
3.0,2024-05-10 14:36:12.774745088,3.88,-0.56,-1.09,113.1,-62.440000000000005,-560.12
3.0,2024-05-10 14:36:12.784818432,3.8799999999999994,-0.56,-1.09,113.1,-62.44,-560.12
3.0,2024-05-10 14:36:12.795236608,3.88,-0.56,-1.09,113.1,-62.44,-560.12
3.0,2024-05-10 14:36:12.804976896,3.5301984126984127,-0.9992857142857143,-1.268968253968254,17.413333333333334,-66.63238095238096,-580.5283333333333
3.0,2024-05-10 14:36:12.815459840,3.45,-1.1,-1.31,-16.54,-68.12,-587.77
3.0,2024-05-10 14:36:12.825060352,3.45,-1.1,-1.31,-16.54,-68.12,-587.77
3.0,2024-05-10 14:36:12.835189248,3.4470833333333335,-1.1469583333333335,-1.3062083333333334,-16.54,-68.12,-587.77
3.0,2024-05-10 14:36:12.845291008,3.35,-2.71,-1.18,-55.8279268292683,-141.60434959349593,-622.3707723577237
3.0,2024-05-10 14:36:12.855087360,3.35,-2.71,-1.18,-64.15,-157.17,-629.7
3.0,2024-05-10 14:36:12.864680192,3.35,-2.71,-1.18,-64.15,-157.17,-629.7
3.0,2024-05-10 14:36:12.875207424,3.3326642335766423,-2.6999635036496348,-1.1508029197080292,-64.15,-157.17,-629.7
3.0,2024-05-10 14:36:12.885167616,3.16,-2.6,-0.86,-116.4350210970464,-197.8339240506329,-563.9793248945147
3.0,2024-05-10 14:36:12.894869248,3.16,-2.6,-0.86,-116.88,-198.18,-563.42
3.0,2024-05-10 14:36:12.904728832,3.16,-2.6,-0.86,-116.88,-198.18,-563.42
3.0,2024-05-10 14:36:12.914556928,3.1508333333333334,-2.5875,-0.875,-117.39886363636363,-197.42954545454546,-562.8575
3.0,2024-05-10 14:36:12.924935168,3.05,-2.45,-1.04,-162.54,-132.14,-513.92
3.0,2024-05-10 14:36:12.935452928,3.05,-2.45,-1.04,-162.54,-132.14,-513.92
3.0,2024-05-10 14:36:12.945071360,3.05,-2.45,-1.04,-162.54,-132.14,-513.92
3.0,2024-05-10 14:36:12.955075328,3.151556420233463,-2.3624513618677048,-1.0785214007782102,-150.1214007782101,-147.56642023346302,-502.74178988326844
3.0,2024-05-10 14:36:12.964802560,3.34,-2.2,-1.15,-111.88,-195.07,-468.32
3.0,2024-05-10 14:36:12.974725888,3.34,-2.2,-1.15,-111.88,-195.07,-468.32
3.0,2024-05-10 14:36:12.984654848,3.34,-2.2,-1.15,-111.88,-195.07,-468.32
3.0,2024-05-10 14:36:12.994754816,3.282703862660944,-2.070128755364807,-1.3180686695278971,-130.7763948497854,-220.82982832618026,-458.01776824034334
3.0,2024-05-10 14:36:13.005335808,3.19,-1.86,-1.59,-178.59,-286.01,-431.95
3.0,2024-05-10 14:36:13.015146752,3.19,-1.86,-1.59,-178.59,-286.01,-431.95
3.0,2024-05-10 14:36:13.024946176,3.19,-1.86,-1.59,-178.59,-286.01,-431.95
3.0,2024-05-10 14:36:13.035212032,3.2228301886792456,-1.8796981132075472,-1.4849433962264151,-173.19709433962265,-346.502679245283,-425.1370188679245
3.0,2024-05-10 14:36:13.045298688,3.24,-1.89,-1.43,-165.83,-429.14,-415.83
3.0,2024-05-10 14:36:13.055208192,3.24,-1.89,-1.43,-165.83,-429.14,-415.83
3.0,2024-05-10 14:36:13.065494528,3.24,-1.89,-1.43,-165.83,-429.14,-415.83
3.0,2024-05-10 14:36:13.075360256,3.1255021834061134,-2.094890829694323,-1.1226637554585153,-203.7644978165939,-411.177903930131,-378.7863318777292
3.0,2024-05-10 14:36:13.085058560,2.86,-2.5699999999999994,-0.41,-293.58,-368.65,-291.08
3.0,2024-05-10 14:36:13.094977536,2.86,-2.57,-0.41,-293.58,-368.65,-291.08
3.0,2024-05-10 14:36:13.105376512,2.86,-2.57,-0.41,-293.58,-368.65,-291.08
3.0,2024-05-10 14:36:13.115417600,-0.4087234042553193,-5.080425531914894,3.2608510638297874,-430.0433191489361,-406.10157446808506,-226.83412765957445
3.0,2024-05-10 14:36:13.125454336,-2.83,-6.94,5.98,-532.9,-434.33,-178.41
3.0,2024-05-10 14:36:13.134993920,-2.83,-6.94,5.98,-532.9,-434.33,-178.41
3.0,2024-05-10 14:36:13.144471552,-2.8133333333333335,-6.892564102564103,6.006666666666668,-532.9,-434.33,-178.41
3.0,2024-05-10 14:36:13.154905088,-2.18,-5.09,7.02,-148.97674796747967,199.18934959349596,181.67455284552844
3.0,2024-05-10 14:36:13.164816896,-2.18,-5.09,7.02,-111.27,261.41,217.04
3.0,2024-05-10 14:36:13.174593280,-2.1799999999999997,-5.09,7.02,-111.27,261.41,217.04
3.0,2024-05-10 14:36:13.184634112,-1.6062280701754388,-4.6848245614035084,5.924122807017544,-32.35144736842105,271.44394736842105,228.07631578947368
3.0,2024-05-10 14:36:13.194977280,-0.07,-3.6,2.99,350.1,320.07,281.56
3.0,2024-05-10 14:36:13.205363712,-0.07,-3.6,2.99,350.1,320.07,281.56
3.0,2024-05-10 14:36:13.215045888,-0.07,-3.6,2.99,350.1,320.07,281.56
3.0,2024-05-10 14:36:13.224940032,0.6694642857142857,-3.5377678571428572,1.4488392857142858,383.18919642857145,321.2713392857143,286.8428125
3.0,2024-05-10 14:36:13.235288320,1.95,-3.43,-1.22,457.52,323.97,298.71
3.0,2024-05-10 14:36:13.245058304,1.95,-3.43,-1.22,457.52,323.97,298.71
3.0,2024-05-10 14:36:13.254566144,1.95,-3.43,-1.22,457.52,323.97,298.71
3.0,2024-05-10 14:36:13.264903168,2.3550434782608693,-3.0070869565217393,-1.8752173913043477,499.38191304347833,266.05182608695657,256.65182608695653
3.0,2024-05-10 14:36:13.275046400,2.63,-2.72,-2.32,536.44,214.78,219.42
3.0,2024-05-10 14:36:13.285031680,2.63,-2.72,-2.32,536.44,214.78,219.42
3.0,2024-05-10 14:36:13.295277312,2.63,-2.72,-2.32,536.44,214.77999999999997,219.42
3.0,2024-05-10 14:36:13.305178880,2.6846491228070177,-2.462368421052632,-1.5549122807017544,526.6068421052631,237.5174561403509,189.8310087719298
3.0,2024-05-10 14:36:13.314672640,2.7,-2.39,-1.34,522.16,247.8,176.45
3.0,2024-05-10 14:36:13.322735104,2.7,-2.39,-1.34,522.16,247.8,176.45
