id,timestamp,acc_x,acc_y,acc_z,gyro_x,gyro_y,gyro_z
3.0,2024-05-10 14:36:04.168777472,3.43,0.34,-1.19,-104.19,-54.99000000000001,-386.35
3.0,2024-05-10 14:36:04.175159040,3.4299999999999997,0.34,-1.19,-104.19,-54.99,-386.35
3.0,2024-05-10 14:36:04.184799232,3.332456896551724,-0.02499999999999997,-1.0389655172413792,-117.68612068965517,-48.01594827586207,-398.48172413793105
3.0,2024-05-10 14:36:04.195024640,3.12,-0.8200000000000001,-0.7099999999999999,-168.09,-21.969999999999995,-443.79
3.0,2024-05-10 14:36:04.205404416,3.12,-0.82,-0.7100000000000001,-168.09,-21.970000000000002,-443.79
3.0,2024-05-10 14:36:04.214941696,3.12,-0.82,-0.7100000000000001,-168.09,-21.970000000000002,-443.79
3.0,2024-05-10 14:36:04.224836864,3.1575103734439836,-1.2841908713692947,-0.8694190871369295,-159.7718257261411,-23.53132780082987,-471.89008298755186
3.0,2024-05-10 14:36:04.235305984,3.2,-1.81,-1.05,-146.3,-26.06,-517.4
3.0,2024-05-10 14:36:04.245226240,3.2,-1.81,-1.05,-146.3,-26.06,-517.4
3.0,2024-05-10 14:36:04.255016960,3.2,-1.81,-1.05,-146.3,-26.06,-517.4
3.0,2024-05-10 14:36:04.264981760,3.1948034934497818,-2.095807860262009,-0.9824454148471616,-126.3027074235808,-47.09956331877729,-538.3339737991266
3.0,2024-05-10 14:36:04.275067904,3.19,-2.36,-0.92,-87.59,-87.83,-578.86
3.0,2024-05-10 14:36:04.285208832,3.19,-2.36,-0.92,-87.59,-87.83,-578.86
3.0,2024-05-10 14:36:04.295478528,3.19,-2.36,-0.92,-87.59,-87.83,-578.86
3.0,2024-05-10 14:36:04.305148160,3.033187772925764,-2.2106550218340613,-1.2336244541484715,-83.87995633187774,-125.76362445414847,-570.8320524017468
3.0,2024-05-10 14:36:04.314820096,2.98,-2.16,-1.34,-80.51,-160.22,-563.54
3.0,2024-05-10 14:36:04.324814848,2.98,-2.16,-1.34,-80.51,-160.22,-563.54
3.0,2024-05-10 14:36:04.335141632,2.98,-2.16,-1.34,-80.51,-160.22,-563.54
3.0,2024-05-10 14:36:04.345315072,3.389632653061225,-2.1757551020408163,-1.3006122448979593,-87.87897959183672,-264.35714285714283,-532.4542857142857
3.0,2024-05-10 14:36:04.355231232,3.5,-2.18,-1.29,-91.13,-310.3,-518.74
3.0,2024-05-10 14:36:04.365292032,3.5,-2.18,-1.29,-91.13,-310.3,-518.74
3.0,2024-05-10 14:36:04.374866944,3.5,-2.18,-1.29,-91.13,-310.3,-518.74
3.0,2024-05-10 14:36:04.384697856,3.6911111111111112,-1.8636781609195403,-1.7644827586206895,-141.2867816091954,-329.20681992337165,-498.6667432950191
3.0,2024-05-10 14:36:04.394864384,3.79,-1.7,-2.01,-167.24,-338.99,-488.28
3.0,2024-05-10 14:36:04.405416448,3.79,-1.7,-2.01,-167.24,-338.99,-488.28
3.0,2024-05-10 14:36:04.414896384,3.79,-1.7,-2.01,-167.24,-338.99,-488.28
3.0,2024-05-10 14:36:04.424595200,3.622566037735849,-2.1727547169811325,-2.059245283018868,-249.89645283018868,-404.9981509433962,-458.0291320754717
3.0,2024-05-10 14:36:04.434839808,3.62,-2.18,-2.06,-263.31,-415.71,-453.12
3.0,2024-05-10 14:36:04.444989696,3.62,-2.18,-2.06,-263.31,-415.71,-453.12
3.0,2024-05-10 14:36:04.455063552,3.62,-2.18,-2.06,-263.31,-415.71,-453.12
3.0,2024-05-10 14:36:04.464911360,2.57,-2.73,-0.59,-362.4805069124424,-332.0602304147465,-363.45179723502304
3.0,2024-05-10 14:36:04.474775808,2.57,-2.73,-0.59,-370.91,-324.95,-355.83
3.0,2024-05-10 14:36:04.484824064,2.57,-2.73,-0.59,-370.91,-324.95,-355.83
3.0,2024-05-10 14:36:04.495247616,0.765890410958904,-4.488904109589041,1.505890410958904,-406.5635616438356,-312.7827397260274,-346.19876712328767
3.0,2024-05-10 14:36:04.505058816,-1.82,-7.01,4.51,-660.1,-226.26,-277.71
3.0,2024-05-10 14:36:04.514761472,-1.82,-7.01,4.51,-660.1,-226.26,-277.71
3.0,2024-05-10 14:36:04.525088000,-1.82,-7.01,4.51,-660.1,-226.26,-277.71
3.0,2024-05-10 14:36:04.535185920,-2.0695238095238095,-6.7718181818181815,5.922077922077922,-398.59203463203465,-135.20554112554112,-122.0460173160173
3.0,2024-05-10 14:36:04.544653312,-2.2600000000000002,-6.59,7.0,-90.20999999999998,-27.830000000000002,61.52000000000001
3.0,2024-05-10 14:36:04.554721792,-2.26,-6.59,7.0,-90.21,-27.83,61.52
3.0,2024-05-10 14:36:04.565287168,-2.26,-6.59,7.0,-90.21,-27.83,61.52
3.0,2024-05-10 14:36:04.575206656,-0.26863999999999993,-4.8652,3.46416,106.04003999999999,197.12284,200.04552
3.0,2024-05-10 14:36:04.585172224,0.28,-4.39,2.49,322.08,444.76,352.54
3.0,2024-05-10 14:36:04.594697984,0.28,-4.39,2.49,322.08,444.76,352.54
3.0,2024-05-10 14:36:04.604743936,0.28,-4.39,2.49,322.08,444.76,352.54
3.0,2024-05-10 14:36:04.614904320,2.7567634854771783,-3.2003734439834024,-1.459170124481328,329.1892116182572,469.2920331950207,450.32668049792534
3.0,2024-05-10 14:36:04.624690432,2.82,-3.17,-1.56,330.2,472.78,464.2300000000001
3.0,2024-05-10 14:36:04.634837248,2.82,-3.17,-1.56,330.2,472.78,464.23
3.0,2024-05-10 14:36:04.644960000,2.9033333333333333,-3.033247863247863,-1.5642735042735043,341.09094017094014,446.0452991452991,454.8649572649573
3.0,2024-05-10 14:36:04.654910720,3.21,-2.53,-1.58,446.04,188.42,364.62
3.0,2024-05-10 14:36:04.664951296,3.21,-2.53,-1.58,446.04,188.42,364.62
3.0,2024-05-10 14:36:04.675244032,3.21,-2.53,-1.58,446.04,188.42,364.62
3.0,2024-05-10 14:36:04.685066752,3.21,-2.5300000000000002,-1.5800000000000003,446.04,188.42000000000002,364.62
3.0,2024-05-10 14:36:04.694933248,4.3272764227642275,-1.8596341463414636,-0.7444715447154471,321.6919918699187,477.85288617886175,494.7875609756098
3.0,2024-05-10 14:36:04.705353984,4.36,-1.84,-0.72,318.05,486.33,498.6
3.0,2024-05-10 14:36:04.715261440,4.36,-1.84,-0.72,318.05,486.33,498.6
3.0,2024-05-10 14:36:04.725153024,3.5953982300884957,-1.368495575221239,-0.6371681415929203,99.3866371681416,614.1459292035398,543.0361061946903
3.0,2024-05-10 14:36:04.735028224,3.16,-1.1,-0.59,-196.72,787.23,603.21
3.0,2024-05-10 14:36:04.744876800,3.16,-1.1,-0.59,-196.72,787.23,603.21
3.0,2024-05-10 14:36:04.755327232,3.16,-1.1,-0.59,-196.72,787.23,603.21
3.0,2024-05-10 14:36:04.765086464,2.0352,-1.366,-0.21,-214.57124444444443,711.9964888888888,589.5052444444444
3.0,2024-05-10 14:36:04.775151104,1.68,-1.45,-0.09,-278.69,441.77,540.28
3.0,2024-05-10 14:36:04.785301760,1.68,-1.45,-0.09,-278.69,441.77,540.28
3.0,2024-05-10 14:36:04.795327744,1.68,-1.45,-0.09,-278.69,441.77,540.28
3.0,2024-05-10 14:36:04.805143040,1.5126872246696035,-2.147136563876652,-0.17365638766519825,-208.46885462555065,118.49872246696034,442.7078414096916
3.0,2024-05-10 14:36:04.814701312,1.5,-2.2,-0.18,-192.99,47.24,421.2
3.0,2024-05-10 14:36:04.824715008,1.5,-2.2,-0.18,-192.99,47.24,421.2
3.0,2024-05-10 14:36:04.835141632,1.5,-2.2,-0.18,-192.99,47.24,421.2
3.0,2024-05-10 14:36:04.845266432,1.8879069767441863,-2.4973953488372094,-0.02483720930232558,-107.79916279069768,-104.32172093023254,410.90106976744187
3.0,2024-05-10 14:36:04.855334912,2.1,-2.66,0.06,-61.22,-187.19,405.27
3.0,2024-05-10 14:36:04.865510400,2.1,-2.66,0.06,-61.22,-187.19,405.27
3.0,2024-05-10 14:36:04.875251968,2.3454708520179373,-2.7198206278026906,0.15695067264573992,-82.58421524663676,-165.7886547085202,430.74121076233183
3.0,2024-05-10 14:36:04.884852992,3.29,-2.95,0.53,-164.79,-83.44,528.75
3.0,2024-05-10 14:36:04.894831872,3.29,-2.95,0.53,-164.79,-83.44,528.75
3.0,2024-05-10 14:36:04.905302272,3.29,-2.95,0.53,-164.79,-83.44,528.75
3.0,2024-05-10 14:36:04.915332608,4.019803149606299,-2.7358661417322834,0.3289763779527559,-135.8314960629921,-56.014055118110235,535.050157480315
3.0,2024-05-10 14:36:04.925054208,4.96,-2.4599999999999995,0.07,-76.17,0.49,548.03
3.0,2024-05-10 14:36:04.935088384,4.96,-2.46,0.07,-76.17,0.49,548.03
3.0,2024-05-10 14:36:04.945158400,4.96,-2.46,0.07,-76.17,0.49,548.03
3.0,2024-05-10 14:36:04.954547456,5.762569169960474,-1.574584980237154,-0.6393675889328063,-92.73758893280633,-17.243794466403163,439.71814229249014
3.0,2024-05-10 14:36:04.964573184,6.51,-0.75,-1.3,-116.09,-42.24,287.05
3.0,2024-05-10 14:36:04.974491904,6.51,-0.75,-1.3,-116.09,-42.24,287.05
3.0,2024-05-10 14:36:04.984776192,6.51,-0.75,-1.3,-116.09,-42.239999999999995,287.05
3.0,2024-05-10 14:36:04.994471168,7.01122641509434,0.2719811320754717,-1.5017924528301887,-73.97735849056605,-7.663160377358492,186.98900943396225
3.0,2024-05-10 14:36:05.004648448,7.28,0.82,-1.61,-24.05,33.33,68.36
3.0,2024-05-10 14:36:05.014869504,7.28,0.82,-1.61,-24.05,33.33,68.36
3.0,2024-05-10 14:36:05.024622080,7.28,0.82,-1.61,-24.05,33.33,68.36
3.0,2024-05-10 14:36:05.034775552,5.89736220472441,0.5882283464566929,-0.8827165354330709,-24.163779527559058,37.74062992125984,32.46055118110236
3.0,2024-05-10 14:36:05.045036288,5.55,0.53,-0.7,-24.9,66.28,-199.83
3.0,2024-05-10 14:36:05.055076096,5.55,0.53,-0.7,-24.9,66.28,-199.83
3.0,2024-05-10 14:36:05.064847872,5.55,0.53,-0.7,-24.9,66.28,-199.83
3.0,2024-05-10 14:36:05.074824704,3.8333451957295375,-0.05829181494661921,-0.2949466192170819,64.2202846975089,18.086761565836298,-384.8114946619217
3.0,2024-05-10 14:36:05.084979456,3.77,-0.08,-0.28,76.9,11.23,-411.13
3.0,2024-05-10 14:36:05.094869248,3.77,-0.08,-0.28,76.9,11.23,-411.13
3.0,2024-05-10 14:36:05.104807424,3.77,-0.08,-0.28,76.9,11.23,-411.13
3.0,2024-05-10 14:36:05.114732800,2.9602661596958177,-0.6688973384030418,-0.5100380228136883,72.46102661596959,19.26593155893536,-487.4263878326996
3.0,2024-05-10 14:36:05.124867584,2.89,-0.72,-0.53,71.47,21.06,-504.4599999999999
3.0,2024-05-10 14:36:05.134966784,2.8878512396694216,-0.7233884297520661,-0.5313223140495869,71.46999999999998,21.06,-504.46
3.0,2024-05-10 14:36:05.144566528,2.63,-1.13,-0.69,-4.994076923076922,-29.24669230769231,-542.5610769230769
3.0,2024-05-10 14:36:05.154677760,2.63,-1.13,-0.69,-16.11,-36.56,-548.1
3.0,2024-05-10 14:36:05.165133568,2.63,-1.13,-0.69,-16.11,-36.56,-548.1
3.0,2024-05-10 14:36:05.174854912,2.636774193548387,-1.173548387096774,-0.6769354838709677,-16.11,-36.56,-548.1
3.0,2024-05-10 14:36:05.184700672,2.77,-2.03,-0.42,-42.964772727272724,-117.443,-550.7038636363636
3.0,2024-05-10 14:36:05.194898176,2.77,-2.03,-0.42,-50.66,-140.62,-551.45
3.0,2024-05-10 14:36:05.205065216,2.77,-2.03,-0.42,-50.66,-140.62,-551.45
3.0,2024-05-10 14:36:05.215244544,2.78984126984127,-2.000238095238095,-0.43190476190476185,-52.653055555555554,-138.89916666666667,-549.6941666666667
3.0,2024-05-10 14:36:05.224894464,2.87,-1.88,-0.48,-60.91,-131.77,-542.42
3.0,2024-05-10 14:36:05.235019520,2.87,-1.88,-0.48,-60.91,-131.77,-542.42
3.0,2024-05-10 14:36:05.245104640,2.87,-1.8800000000000001,-0.48,-60.910000000000004,-131.77,-542.42
3.0,2024-05-10 14:36:05.255047424,2.9632093023255814,-1.8566976744186046,-0.8839069767441861,-44.73744186046511,-201.95674418604654,-568.4323255813954
3.0,2024-05-10 14:36:05.265140224,2.99,-1.85,-1.0,-36.93,-235.84,-580.99
3.0,2024-05-10 14:36:05.275353600,2.99,-1.85,-1.0,-36.93,-235.84,-580.99
3.0,2024-05-10 14:36:05.285319168,3.0435877862595424,-1.8376335877862597,-1.024732824427481,-39.68667938931298,-240.06118320610688,-578.9707251908397
3.0,2024-05-10 14:36:05.295326208,3.38,-1.76,-1.18,-85.08,-309.57,-545.72
3.0,2024-05-10 14:36:05.305145088,3.38,-1.76,-1.18,-85.08,-309.57,-545.72
3.0,2024-05-10 14:36:05.315170560,3.38,-1.76,-1.18,-85.08,-309.57,-545.72
3.0,2024-05-10 14:36:05.325259008,3.4016091954022984,-1.7059770114942527,-1.2718390804597701,-87.7003448275862,-312.9458620689655,-544.358275862069
3.0,2024-05-10 14:36:05.334901760,3.5,-1.46,-1.69,-161.07,-407.47,-506.23
3.0,2024-05-10 14:36:05.344779264,3.5,-1.46,-1.69,-161.07,-407.47,-506.2300000000001
3.0,2024-05-10 14:36:05.354824192,3.5,-1.46,-1.69,-161.07,-407.47,-506.22999999999996
3.0,2024-05-10 14:36:05.364741888,3.4006399999999997,-1.5345199999999999,-1.70932,-178.987,-393.15608000000003,-491.71436000000006
3.0,2024-05-10 14:36:05.375192576,3.14,-1.73,-1.76,-270.32,-320.19,-417.72
3.0,2024-05-10 14:36:05.385225472,3.14,-1.73,-1.7600000000000002,-270.32,-320.18999999999994,-417.72
3.0,2024-05-10 14:36:05.394407936,3.14,-1.73,-1.76,-270.32,-320.19,-417.72
3.0,2024-05-10 14:36:05.404908800,2.506881720430108,-1.9674193548387096,-0.9858064516129033,-303.6294982078853,-320.32336917562725,-404.54924731182797
3.0,2024-05-10 14:36:05.415199488,1.3,-2.42,0.49,-422.67,-320.8,-357.4800000000001
3.0,2024-05-10 14:36:05.424686336,1.3,-2.42,0.49,-422.67,-320.8,-357.48
3.0,2024-05-10 14:36:05.435205120,1.3,-2.42,0.49,-422.67,-320.8,-357.48
3.0,2024-05-10 14:36:05.445182464,-0.11436781609195396,-4.37632183908046,2.525632183908046,-421.8675478927203,-236.85946360153255,-308.9147892720307
3.0,2024-05-10 14:36:05.455192320,-1.91,-6.86,5.11,-420.29,-71.84,-213.44
3.0,2024-05-10 14:36:05.465107456,-1.91,-6.86,5.11,-420.29,-71.84,-213.44
3.0,2024-05-10 14:36:05.474900480,-1.91,-6.86,5.11,-420.29,-71.84,-213.44
3.0,2024-05-10 14:36:05.484894208,-2.318148148148148,-6.731111111111112,5.238888888888889,-234.28703703703704,26.965333333333334,-81.87874074074074
3.0,2024-05-10 14:36:05.494960640,-2.67,-6.62,5.35,5.31,154.24,87.59
3.0,2024-05-10 14:36:05.504909568,-2.67,-6.62,5.35,5.31,154.24,87.59
3.0,2024-05-10 14:36:05.515506176,-2.67,-6.619999999999999,5.35,5.31,154.24,87.59
3.0,2024-05-10 14:36:05.525118976,-1.4445419847328242,-6.012824427480917,4.017175572519084,131.3858778625954,239.0090076335878,151.11381679389314
3.0,2024-05-10 14:36:05.535474688,0.64,-4.98,1.75,439.94,446.47,306.58
3.0,2024-05-10 14:36:05.545288704,0.64,-4.98,1.75,439.94,446.47,306.58
3.0,2024-05-10 14:36:05.555090176,1.1870781893004114,-4.705514403292181,0.9511522633744856,439.94,446.47,306.58
3.0,2024-05-10 14:36:05.565044736,3.53,-3.53,-2.47,348.95275303643723,536.4951012145749,509.0273684210526
3.0,2024-05-10 14:36:05.575040768,3.53,-3.53,-2.47,348.21,537.23,510.68
3.0,2024-05-10 14:36:05.584791040,3.53,-3.53,-2.47,348.21,537.23,510.68
3.0,2024-05-10 14:36:05.594824960,3.563079847908745,-3.349163498098859,-2.3200380228136885,358.1824714828897,501.9514448669202,505.87475285171104
3.0,2024-05-10 14:36:05.605299968,3.68,-2.71,-1.79,425.35,264.34,473.51
3.0,2024-05-10 14:36:05.614906624,3.68,-2.71,-1.79,425.35,264.34,473.51
3.0,2024-05-10 14:36:05.624945664,3.68,-2.71,-1.79,425.35,264.34,473.50999999999993
3.0,2024-05-10 14:36:05.634896384,4.361511111111112,-2.458533333333333,-1.5822666666666667,384.06822222222223,323.4222222222222,511.1813333333333
3.0,2024-05-10 14:36:05.644727808,5.55,-2.02,-1.22,256.47,506.04,627.62
3.0,2024-05-10 14:36:05.655396352,5.55,-2.02,-1.22,256.47,506.03999999999996,627.62
3.0,2024-05-10 14:36:05.665075968,5.55,-2.02,-1.22,256.47,506.04,627.62
3.0,2024-05-10 14:36:05.674999808,4.122697095435685,-1.6540248962655602,-0.7076348547717842,22.483112033195034,565.673195020747,632.505062240664
3.0,2024-05-10 14:36:05.685326592,3.21,-1.42,-0.38,-205.75,623.84,637.27
3.0,2024-05-10 14:36:05.695170560,3.21,-1.42,-0.38,-205.75,623.84,637.27
3.0,2024-05-10 14:36:05.704518144,3.2099999999999995,-1.42,-0.38000000000000006,-205.75,623.8400000000001,637.27
3.0,2024-05-10 14:36:05.714828800,2.3997637795275595,-1.6592125984251969,-0.17937007874015748,-180.235,484.835,589.3249999999999
3.0,2024-05-10 14:36:05.725008384,2.16,-1.73,-0.12,-154.72,345.83,541.38
3.0,2024-05-10 14:36:05.734811904,2.16,-1.73,-0.12,-154.72,345.83,541.38
3.0,2024-05-10 14:36:05.745167360,2.16,-1.73,-0.12000000000000001,-154.72,345.83,541.38
3.0,2024-05-10 14:36:05.755073024,1.8463070539419086,-1.8624481327800828,-0.23850622406639002,-45.415435684647306,67.47979253112032,447.0141908713693
3.0,2024-05-10 14:36:05.764916224,1.71,-1.92,-0.29,2.08,-53.47,406.01
3.0,2024-05-10 14:36:05.775055104,1.71,-1.9200000000000002,-0.29,2.08,-53.47,406.01
3.0,2024-05-10 14:36:05.784635136,1.761605504587156,-1.9498165137614678,-0.2693577981651376,2.7723853211009173,-54.12738532110092,405.8120183486239
3.0,2024-05-10 14:36:05.794814464,2.16,-2.18,-0.11,153.02,-196.78,362.85
3.0,2024-05-10 14:36:05.805134336,2.16,-2.18,-0.11,153.02,-196.78,362.85
3.0,2024-05-10 14:36:05.815029760,2.16,-2.18,-0.11,153.02,-196.78,362.85
3.0,2024-05-10 14:36:05.824679680,2.304761904761905,-2.120952380952381,-0.09095238095238097,150.5836111111111,-193.1975,363.81138888888887
3.0,2024-05-10 14:36:05.834867712,2.92,-1.87,-0.01,65.31,-67.81,397.46
3.0,2024-05-10 14:36:05.845021952,2.92,-1.87,-0.01,65.31,-67.81,397.46
3.0,2024-05-10 14:36:05.854994432,2.92,-1.87,-0.01,65.31,-67.81,397.46
3.0,2024-05-10 14:36:05.864630784,3.4691050583657583,-1.8139688715953308,-0.2191828793774319,41.61817120622568,-16.284708171206226,407.0833463035019
3.0,2024-05-10 14:36:05.874929664,4.39,-1.72,-0.57,-86.91,263.24,459.29
3.0,2024-05-10 14:36:05.885099008,4.39,-1.72,-0.57,-86.91,263.24,459.29
3.0,2024-05-10 14:36:05.895298560,4.39,-1.72,-0.57,-86.91,263.24,459.29
3.0,2024-05-10 14:36:05.905058048,5.107851239669421,-1.0772727272727272,-1.2544628099173554,-85.80880165289256,217.07334710743802,405.3781404958678
3.0,2024-05-10 14:36:05.914955264,6.11,-0.18,-2.21,-83.62,125.31,298.22
3.0,2024-05-10 14:36:05.925166848,6.11,-0.18,-2.21,-83.62,125.31,298.22
3.0,2024-05-10 14:36:05.935234304,6.11,-0.18,-2.21,-83.62,125.31,298.22
3.0,2024-05-10 14:36:05.944765440,6.383387096774193,0.4351209677419355,-2.0641935483870966,-51.17262096774194,74.99891129032258,216.23612903225808
3.0,2024-05-10 14:36:05.954568192,6.71,1.17,-1.89,11.05,-21.48,59.02
3.0,2024-05-10 14:36:05.964551424,6.71,1.17,-1.89,11.05,-21.48,59.02
3.0,2024-05-10 14:36:05.974421248,6.71,1.17,-1.89,11.05,-21.48,59.02
3.0,2024-05-10 14:36:05.985007360,5.959067164179104,0.820186567164179,-1.5588432835820896,-19.411753731343282,4.765335820895522,-55.30835820895522
3.0,2024-05-10 14:36:05.994913536,5.1,0.41999999999999993,-1.1799999999999997,-54.25999999999999,34.79,-186.1
3.0,2024-05-10 14:36:06.004721664,5.1,0.42,-1.18,-54.26,34.79,-186.1
3.0,2024-05-10 14:36:06.015164160,5.079007633587786,0.4119847328244275,-1.170267175572519,-54.26,34.79,-186.1
3.0,2024-05-10 14:36:06.025249536,4.0,0.0,-0.67,20.440236220472443,1.102125984251968,-344.14511811023624
3.0,2024-05-10 14:36:06.035128832,4.0,0.0,-0.67,39.67,-7.569999999999999,-384.83
3.0,2024-05-10 14:36:06.044832512,4.0,0.0,-0.67,39.67,-7.57,-384.83
3.0,2024-05-10 14:36:06.055208192,3.9809829059829056,-0.01517094017094017,-0.6685042735042735,39.67,-7.57,-384.83
3.0,2024-05-10 14:36:06.064872192,3.11,-0.7100000000000001,-0.6,-30.24747747747748,4.095045045045045,-481.40783783783786
3.0,2024-05-10 14:36:06.074499072,3.11,-0.71,-0.6,-37.17000000000001,5.25,-490.97
3.0,2024-05-10 14:36:06.084678400,3.11,-0.71,-0.6,-37.17,5.25,-490.97
3.0,2024-05-10 14:36:06.094701312,3.1070967741935482,-0.7758064516129032,-0.6,-37.17,5.25,-490.97
3.0,2024-05-10 14:36:06.104734720,3.08,-1.39,-0.6,-67.52984790874524,58.12422053231939,-497.32619771863114
3.0,2024-05-10 14:36:06.114886144,3.08,-1.39,-0.6,-68.36,59.57,-497.5
3.0,2024-05-10 14:36:06.125027072,3.08,-1.39,-0.6,-68.36,59.57,-497.5
3.0,2024-05-10 14:36:06.135157504,3.107092511013216,-1.5128193832599117,-0.6668281938325992,-68.36,59.57,-497.5
3.0,2024-05-10 14:36:06.144827904,3.23,-2.07,-0.97,-28.256052631578946,-6.336315789473684,-560.2392105263158
3.0,2024-05-10 14:36:06.154879232,3.23,-2.07,-0.97,-15.81,-26.79,-579.71
3.0,2024-05-10 14:36:06.165201152,3.23,-2.07,-0.97,-15.81,-26.79,-579.71
3.0,2024-05-10 14:36:06.175138304,3.3314285714285714,-2.0849159663865544,-0.9938655462184873,-16.644831932773112,-40.54995798319327,-590.0902100840336
3.0,2024-05-10 14:36:06.185204992,3.57,-2.12,-1.05,-21.18,-115.3,-646.48
3.0,2024-05-10 14:36:06.195271936,3.57,-2.12,-1.05,-21.18,-115.3,-646.48
3.0,2024-05-10 14:36:06.205464064,3.57,-2.12,-1.05,-21.18,-115.3,-646.48
3.0,2024-05-10 14:36:06.215089664,3.7117948717948717,-2.116623931623932,-1.212051282051282,-48.27923076923077,-120.98846153846154,-651.806153846154
3.0,2024-05-10 14:36:06.224653312,3.9899999999999998,-2.11,-1.53,-138.61,-139.95,-669.56
3.0,2024-05-10 14:36:06.234874112,3.99,-2.11,-1.53,-138.61,-139.95,-669.56
3.0,2024-05-10 14:36:06.244954112,3.9900000000000007,-2.11,-1.53,-138.61,-139.95,-669.56
3.0,2024-05-10 14:36:06.255144704,4.00428,-1.9433999999999998,-1.55856,-124.39216,-189.04996,-657.093
3.0,2024-05-10 14:36:06.264927232,4.02,-1.76,-1.59,-99.55,-274.84,-635.31
3.0,2024-05-10 14:36:06.275101440,4.02,-1.76,-1.59,-99.55,-274.84,-635.31
3.0,2024-05-10 14:36:06.285543680,4.02,-1.76,-1.59,-99.55,-274.84,-635.31
3.0,2024-05-10 14:36:06.295163648,3.6561607142857144,-1.6945089285714285,-1.691875,-156.44285714285715,-285.5885714285714,-585.6814285714285
3.0,2024-05-10 14:36:06.304885504,3.52,-1.67,-1.73,-188.05,-291.56,-558.11
3.0,2024-05-10 14:36:06.314802432,3.52,-1.67,-1.73,-188.05,-291.56,-558.11
3.0,2024-05-10 14:36:06.325016320,3.52,-1.67,-1.73,-188.05,-291.56,-558.11
3.0,2024-05-10 14:36:06.335136000,2.913734939759036,-2.026626506024096,-1.319879518072289,-190.90738955823295,-321.925702811245,-495.09811244979915
3.0,2024-05-10 14:36:06.345195008,2.84,-2.07,-1.27,-192.26,-336.3,-465.27
3.0,2024-05-10 14:36:06.355088640,2.84,-2.07,-1.27,-192.26,-336.3,-465.27
3.0,2024-05-10 14:36:06.365550592,2.84,-2.07,-1.27,-192.26,-336.3,-465.27
3.0,2024-05-10 14:36:06.375005952,-0.23496,-4.9831199999999995,2.29048,-353.5484,-425.36732,-410.09772
3.0,2024-05-10 14:36:06.384817152,-0.39,-5.13,2.47,-383.36,-441.83,-399.9
3.0,2024-05-10 14:36:06.394452480,-0.39,-5.13,2.47,-383.36,-441.83,-399.9
3.0,2024-05-10 14:36:06.404859136,-0.583433962264151,-5.23377358490566,2.815358490566038,-383.36,-441.83,-399.9
3.0,2024-05-10 14:36:06.414880768,-2.72,-6.38,6.63,-311.031052631579,-45.50330827067669,33.49864661654135
3.0,2024-05-10 14:36:06.424997632,-2.72,-6.38,6.63,-302.86,-0.73,82.46
3.0,2024-05-10 14:36:06.435062016,-2.72,-6.38,6.63,-302.86,-0.73,82.46
3.0,2024-05-10 14:36:06.444939264,-2.430931174089069,-6.178785425101215,6.1751417004048585,-302.86,-0.73,82.46
3.0,2024-05-10 14:36:06.454820864,-0.68,-4.96,3.42,269.90350746268655,182.82417910447762,216.78929104477612
3.0,2024-05-10 14:36:06.464871424,-0.68,-4.96,3.42,318.6,198.43,228.21
3.0,2024-05-10 14:36:06.475146496,-0.68,-4.96,3.42,318.6,198.43,228.21
3.0,2024-05-10 14:36:06.485035776,0.015097276264591376,-4.324824902723735,2.0507782101167313,315.87140077821016,228.11929961089496,254.76408560311285
3.0,2024-05-10 14:36:06.495152128,1.64,-2.84,-1.15,305.85,337.16,352.29
3.0,2024-05-10 14:36:06.505430272,1.64,-2.84,-1.15,305.85,337.16,352.29
3.0,2024-05-10 14:36:06.515175168,1.64,-2.84,-1.15,305.85,337.16,352.29
3.0,2024-05-10 14:36:06.524960768,1.9866135458167333,-2.1121115537848607,-1.4330677290836653,408.01892430278883,199.62565737051793,250.23772908366536
3.0,2024-05-10 14:36:06.535202304,2.24,-1.58,-1.64,516.05,54.2,142.33
3.0,2024-05-10 14:36:06.544944128,2.24,-1.58,-1.64,516.05,54.2,142.33
3.0,2024-05-10 14:36:06.554982656,2.24,-1.58,-1.64,516.05,54.2,142.33
3.0,2024-05-10 14:36:06.565059584,2.6552380952380954,-1.4606190476190477,-1.6192380952380954,462.2197142857143,170.90685714285715,180.24828571428571
3.0,2024-05-10 14:36:06.574784512,3.04,-1.35,-1.6,411.38,281.13,216.06
3.0,2024-05-10 14:36:06.585084416,3.04,-1.35,-1.6,411.38,281.13,216.06
3.0,2024-05-10 14:36:06.595282176,3.04,-1.35,-1.6,411.38,281.13,216.06
3.0,2024-05-10 14:36:06.605157632,2.7928,-0.4802222222222223,-1.581688888888889,266.7205333333333,290.66226666666665,177.44293333333334
3.0,2024-05-10 14:36:06.614724096,2.77,-0.4,-1.58,233.52,292.85,168.58
3.0,2024-05-10 14:36:06.624847872,2.77,-0.4,-1.58,233.52,292.85,168.58
3.0,2024-05-10 14:36:06.634808320,2.7580645161290325,-0.4129032258064516,-1.5448387096774194,232.83608870967745,291.7664112903226,168.14080645161292
3.0,2024-05-10 14:36:06.645156352,2.4,-0.8,-0.49,209.29,254.46000000000004,153.02
3.0,2024-05-10 14:36:06.655027200,2.4,-0.8,-0.49,209.29,254.46000000000004,153.02
3.0,2024-05-10 14:36:06.664544256,2.3947031963470318,-0.8529680365296805,-0.4820547945205479,209.28999999999996,254.46000000000004,153.02
3.0,2024-05-10 14:36:06.674785792,2.36,-1.2,-0.43,168.82,350.83,227.97
3.0,2024-05-10 14:36:06.685006848,2.36,-1.2,-0.43,168.82,350.83,227.97
3.0,2024-05-10 14:36:06.695146752,2.36,-1.2,-0.43,168.82,350.83,227.97
3.0,2024-05-10 14:36:06.705125376,2.2663197026022304,-1.2039033457249069,-0.4182899628252788,164.8363568773234,380.48977695167287,262.57684014869886
3.0,2024-05-10 14:36:06.715312384,2.12,-1.21,-0.4,154.72,455.81,350.46
3.0,2024-05-10 14:36:06.725078784,2.12,-1.21,-0.4,154.72,455.81,350.46
3.0,2024-05-10 14:36:06.735074304,2.12,-1.21,-0.4,154.72,455.81,350.46
3.0,2024-05-10 14:36:06.745073408,2.1080155642023346,-1.3088715953307393,-0.41797665369649806,159.0950972762646,453.01778210116737,381.52459143968866
3.0,2024-05-10 14:36:06.755069696,2.08,-1.54,-0.46,173.46,443.85,483.52
3.0,2024-05-10 14:36:06.765177344,2.08,-1.54,-0.46,173.46,443.85,483.52
3.0,2024-05-10 14:36:06.774853632,2.08,-1.54,-0.46,173.46,443.85,483.52
3.0,2024-05-10 14:36:06.784810496,3.009657794676806,-1.5523954372623576,-0.6025475285171102,175.9793155893536,393.2819771863118,497.6934600760456
3.0,2024-05-10 14:36:06.794798592,3.58,-1.56,-0.69,181.64,279.66,529.54
3.0,2024-05-10 14:36:06.804827648,3.58,-1.56,-0.69,181.64,279.66,529.54
3.0,2024-05-10 14:36:06.815429888,3.58,-1.56,-0.69,181.64,279.66,529.54
3.0,2024-05-10 14:36:06.825231872,5.236975609756097,-1.701219512195122,-1.3584390243902438,-24.9550731707317,493.13297560975604,544.1767804878049
3.0,2024-05-10 14:36:06.834991360,5.34,-1.71,-1.4,-146.67,618.9,552.8
3.0,2024-05-10 14:36:06.844885248,5.34,-1.71,-1.4,-146.67,618.9,552.8
3.0,2024-05-10 14:36:06.855431936,5.34,-1.71,-1.4,-146.67,618.9,552.8
3.0,2024-05-10 14:36:06.865475584,6.980311111111111,-0.34471111111111113,-3.3349777777777776,-61.83595555555556,272.3039111111111,331.07955555555554
3.0,2024-05-10 14:36:06.875410944,7.01,-0.32,-3.37,-48.28,216.92,295.65
3.0,2024-05-10 14:36:06.885031680,7.01,-0.32,-3.37,-48.28,216.92,295.65
3.0,2024-05-10 14:36:06.894735360,6.944705882352942,-0.10647058823529412,-3.3973529411764707,-48.28,216.92,295.65
3.0,2024-05-10 14:36:06.905409280,6.27,2.1,-3.68,-123.58380597014926,68.5555223880597,100.58664179104478
3.0,2024-05-10 14:36:06.915344896,6.27,2.1,-3.68,-124.15,67.44,99.12
3.0,2024-05-10 14:36:06.925001472,6.27,2.1,-3.68,-124.15,67.44,99.12
3.0,2024-05-10 14:36:06.935180032,5.878490566037736,1.8431698113207546,-3.288490566037736,-124.15,67.44,99.12
3.0,2024-05-10 14:36:06.944980992,5.02,1.28,-2.43,-156.74,-39.92,-192.75
3.0,2024-05-10 14:36:06.954640896,5.02,1.28,-2.43,-156.74,-39.92,-192.75
3.0,2024-05-10 14:36:06.964953856,5.02,1.28,-2.43,-156.74,-39.92,-192.75
3.0,2024-05-10 14:36:06.974783744,4.761612903225806,0.9838709677419355,-1.9916129032258065,-167.53818548387096,-35.97705645161291,-218.47620967741935
3.0,2024-05-10 14:36:06.984870912,4.13,0.26,-0.92,-216.25,-18.19,-334.53
3.0,2024-05-10 14:36:06.994838272,4.13,0.26,-0.92,-216.25,-18.19,-334.53
3.0,2024-05-10 14:36:07.004820992,4.13,0.26,-0.92,-216.25,-18.19,-334.53
3.0,2024-05-10 14:36:07.015170304,3.88590405904059,-0.19332103321033212,-0.7356826568265683,-170.98763837638376,-31.272287822878233,-388.4178228782288
3.0,2024-05-10 14:36:07.025181184,3.64,-0.65,-0.55,-104.74,-50.42,-467.29
3.0,2024-05-10 14:36:07.035003392,3.64,-0.65,-0.55,-104.74,-50.42,-467.29
3.0,2024-05-10 14:36:07.045287936,3.64,-0.65,-0.55,-104.74,-50.42,-467.29
3.0,2024-05-10 14:36:07.055251200,3.2985375494071145,-1.1332015810276679,-0.9107905138339921,-91.58150197628458,-66.9412252964427,-519.9023320158103
3.0,2024-05-10 14:36:07.065197312,3.11,-1.4,-1.11,-80.44,-80.93,-564.45
3.0,2024-05-10 14:36:07.075101184,3.11,-1.4,-1.11,-80.44,-80.93,-564.45
3.0,2024-05-10 14:36:07.084676096,3.11,-1.4,-1.11,-80.44,-80.93,-564.45
3.0,2024-05-10 14:36:07.094979584,3.1257894736842102,-1.944736842105263,-0.9284210526315789,-113.13842105263156,-173.93473684210525,-581.3226315789474
3.0,2024-05-10 14:36:07.104925440,3.13,-2.09,-0.88,-128.23,-216.86,-589.11
3.0,2024-05-10 14:36:07.115098368,3.13,-2.09,-0.88,-128.23,-216.86,-589.1100000000001
3.0,2024-05-10 14:36:07.125128192,3.13,-2.09,-0.88,-128.23,-216.86,-589.11
3.0,2024-05-10 14:36:07.135019520,3.138658536585366,-1.786951219512195,-0.8540243902439024,-155.97593495934956,-209.43321138211383,-543.500243902439
3.0,2024-05-10 14:36:07.144971520,3.14,-1.74,-0.85,-164.73,-207.09,-529.11
3.0,2024-05-10 14:36:07.155025152,3.14,-1.74,-0.85,-164.73,-207.09,-529.11
3.0,2024-05-10 14:36:07.164473856,3.14,-1.74,-0.85,-164.73,-207.09,-529.11
3.0,2024-05-10 14:36:07.174836480,3.0072941176470587,-1.548313725490196,-1.1227843137254903,-200.50898039215687,-218.87870588235293,-503.6009803921569
3.0,2024-05-10 14:36:07.185214208,2.96,-1.48,-1.22,-213.26,-223.08,-494.51000000000005
3.0,2024-05-10 14:36:07.195090688,2.96,-1.48,-1.22,-213.26,-223.08,-494.51
3.0,2024-05-10 14:36:07.204919552,2.944790874524715,-1.486083650190114,-1.2488973384030417,-213.26,-223.08,-494.51
3.0,2024-05-10 14:36:07.215204608,2.76,-1.56,-1.6,-209.9823791821561,-239.95821561338292,-481.42249070631976
3.0,2024-05-10 14:36:07.224911872,2.76,-1.56,-1.6,-208.98,-245.12,-477.42
3.0,2024-05-10 14:36:07.234893568,2.76,-1.56,-1.6,-208.98,-245.12,-477.42
3.0,2024-05-10 14:36:07.244788992,2.7627692307692304,-1.5295384615384615,-1.6203076923076924,-208.78338461538462,-255.22123076923077,-473.0870769230769
3.0,2024-05-10 14:36:07.255208448,2.79,-1.23,-1.82,-206.85,-354.55,-430.48
3.0,2024-05-10 14:36:07.265315840,2.79,-1.23,-1.82,-206.85,-354.55,-430.48
3.0,2024-05-10 14:36:07.275065344,2.79,-1.23,-1.82,-206.85,-354.55,-430.48
3.0,2024-05-10 14:36:07.285053952,2.50685393258427,-1.3693258426966293,-1.568314606741573,-226.35831460674157,-334.53000000000003,-405.58539325842696
3.0,2024-05-10 14:36:07.295131392,2.16,-1.54,-1.26,-285.77,-273.56,-329.77
3.0,2024-05-10 14:36:07.305158400,2.16,-1.54,-1.26,-285.77,-273.56,-329.77
3.0,2024-05-10 14:36:07.315086592,2.16,-1.54,-1.26,-285.77,-273.56,-329.77
3.0,2024-05-10 14:36:07.324950272,0.9656603773584906,-2.4739622641509436,0.5003773584905661,-382.50150943396227,-235.324,-293.40150943396225
3.0,2024-05-10 14:36:07.335108864,0.05,-3.19,1.85,-497.62000000000006,-189.82,-250.12
3.0,2024-05-10 14:36:07.345507584,0.05,-3.19,1.85,-497.62,-189.82,-250.12
3.0,2024-05-10 14:36:07.355035392,0.05,-3.1899999999999995,1.85,-497.62,-189.82,-250.12
3.0,2024-05-10 14:36:07.364522752,-1.1122540983606557,-4.835122950819672,4.152049180327869,-377.6052459016393,-221.55622950819674,-201.81622950819673
3.0,2024-05-10 14:36:07.374915584,-2.02,-6.12,5.95,-179.32,-273.99,-122.01
3.0,2024-05-10 14:36:07.384819200,-2.02,-6.12,5.95,-179.32,-273.99,-122.00999999999999
3.0,2024-05-10 14:36:07.394565120,-2.02,-6.12,5.95,-179.32,-273.99,-122.01
3.0,2024-05-10 14:36:07.404560128,-1.3186718750000002,-5.5753515625,4.8084765625,7.0139843750000095,-36.03765625,-0.11195312499999999
3.0,2024-05-10 14:36:07.414665728,-1.08,-5.39,4.42,254.33000000000004,279.79,161.68
3.0,2024-05-10 14:36:07.424723712,-1.08,-5.39,4.42,254.33,279.79,161.68
3.0,2024-05-10 14:36:07.435357440,-1.08,-5.39,4.42,254.33,279.79,161.68
3.0,2024-05-10 14:36:07.445296384,1.16,-4.081681415929204,0.17787610619469027,381.79938053097345,446.58079646017705,261.7787610619469
3.0,2024-05-10 14:36:07.454688000,1.18,-4.07,0.14,401.31,472.11,277.1
3.0,2024-05-10 14:36:07.464655360,1.18,-4.07,0.14,401.31,472.11,277.1
3.0,2024-05-10 14:36:07.474660096,1.18,-4.07,0.14,401.31,472.11,277.1
3.0,2024-05-10 14:36:07.485131520,2.952340425531915,-2.7146808510638296,-2.1970567375886523,383.49102836879433,465.79386524822695,409.0351063829787
3.0,2024-05-10 14:36:07.495003392,3.22,-2.51,-2.55,380.8,464.84,428.96
3.0,2024-05-10 14:36:07.504804864,3.22,-2.51,-2.55,380.8,464.84,428.96
3.0,2024-05-10 14:36:07.515063296,3.314669117647059,-2.3055147058823526,-2.038786764705882,375.13845588235296,433.5722794117647,430.8861764705882
3.0,2024-05-10 14:36:07.525064448,3.4699999999999998,-1.97,-1.2,359.99,349.90999999999997,436.04
3.0,2024-05-10 14:36:07.532013056,3.47,-1.9700000000000002,-1.2,359.99,349.91,436.04
,,,,,,,
3.0,2024-05-10 14:36:07.557949440,3.262,-1.7842857142857143,-0.7691428571428572,147.57,473.1945714285714,465.4645714285714
3.0,2024-05-10 14:36:07.565029120,3.19,-1.72,-0.62,74.04,515.87,475.65
3.0,2024-05-10 14:36:07.575238912,3.19,-1.72,-0.62,74.04,515.87,475.65
3.0,2024-05-10 14:36:07.585382912,3.19,-1.72,-0.62,74.04,515.87,475.65
3.0,2024-05-10 14:36:07.595390976,2.653157894736842,-1.7705263157894735,-0.34842105263157896,-40.48240601503759,499.69751879699254,521.9293984962407
3.0,2024-05-10 14:36:07.605490432,2.34,-1.8,-0.19,-156.74,483.28000000000003,568.91
3.0,2024-05-10 14:36:07.615300352,2.34,-1.8,-0.19,-156.74,483.28,568.91
3.0,2024-05-10 14:36:07.625301760,2.34,-1.8,-0.19,-156.74,483.28,568.91
3.0,2024-05-10 14:36:07.635184896,2.3008108108108107,-2.231081081081081,-0.3154054054054054,-184.96747747747747,284.8374324324324,588.505990990991
3.0,2024-05-10 14:36:07.644810496,2.29,-2.35,-0.35,-198.24,191.53,597.72
3.0,2024-05-10 14:36:07.654895616,2.29,-2.35,-0.35,-198.24,191.53,597.72
3.0,2024-05-10 14:36:07.664879872,2.29,-2.35,-0.35,-198.24,191.53,597.72
3.0,2024-05-10 14:36:07.674880512,2.408008298755187,-2.3696680497925313,-0.1336514522821577,-17.933568464730293,-73.30278008298755,515.0139834024897
3.0,2024-05-10 14:36:07.684711168,2.41,-2.37,-0.13,13.73,-119.81,500.49
3.0,2024-05-10 14:36:07.694512384,2.41,-2.37,-0.13,13.73,-119.81,500.49
3.0,2024-05-10 14:36:07.704712704,2.41,-2.37,-0.13,13.73,-119.81,500.49
3.0,2024-05-10 14:36:07.715033600,2.54,-2.37,-0.2,170.0962015503876,-181.72162790697675,416.7901550387597
3.0,2024-05-10 14:36:07.724989440,2.54,-2.37,-0.2,187.62,-188.66,407.41
3.0,2024-05-10 14:36:07.734957312,2.54,-2.37,-0.2,187.62,-188.66,407.41
3.0,2024-05-10 14:36:07.745131520,2.8048863636363635,-2.3938636363636365,-0.12125000000000002,187.62,-188.66,407.41
3.0,2024-05-10 14:36:07.755185152,3.65,-2.47,0.13,96.26039682539682,-22.63968253968254,451.8566666666667
3.0,2024-05-10 14:36:07.765110272,3.65,-2.47,0.13,85.75,-3.54,456.97
3.0,2024-05-10 14:36:07.775203328,3.65,-2.47,0.13,85.75,-3.54,456.97
3.0,2024-05-10 14:36:07.785053440,4.267709923664123,-2.3272519083969465,-0.3683206106870229,85.75,-3.54,456.97
3.0,2024-05-10 14:36:07.795201792,6.03,-1.92,-1.79,65.49,263.61,385.01
3.0,2024-05-10 14:36:07.805047296,6.03,-1.92,-1.79,65.49,263.61,385.01
3.0,2024-05-10 14:36:07.815161856,6.03,-1.92,-1.79,65.49,263.61,385.01
3.0,2024-05-10 14:36:07.825078272,5.945180722891567,-0.8650602409638554,-2.081566265060241,1.8220481927710828,137.86156626506025,337.5160240963855
3.0,2024-05-10 14:36:07.835265536,5.87,0.07,-2.34,-81.3,-26.31,275.51
3.0,2024-05-10 14:36:07.845141760,5.87,0.07,-2.34,-81.3,-26.31,275.51
3.0,2024-05-10 14:36:07.855202304,5.870000000000001,0.07,-2.34,-81.3,-26.31,275.51
3.0,2024-05-10 14:36:07.864543744,6.041286307053942,0.31697095435684647,-2.483402489626556,-73.38410788381742,-8.966804979253112,229.43439834024895
3.0,2024-05-10 14:36:07.874809344,6.73,1.31,-3.06,-40.71,62.62,39.25
3.0,2024-05-10 14:36:07.884936960,6.73,1.3100000000000003,-3.06,-40.71,62.62,39.25
3.0,2024-05-10 14:36:07.894927104,6.73,1.31,-3.06,-40.71,62.62,39.25
3.0,2024-05-10 14:36:07.904786176,6.0337109375,1.238125,-2.4445703125,-72.2406640625,62.62,-68.203125
3.0,2024-05-10 14:36:07.914889984,5.18,1.15,-1.69,-110.9,62.62,-199.95
3.0,2024-05-10 14:36:07.925114368,5.18,1.15,-1.69,-110.9,62.620000000000005,-199.95
3.0,2024-05-10 14:36:07.935193344,5.18,1.15,-1.69,-110.9,62.62,-199.95
3.0,2024-05-10 14:36:07.945150720,4.08074074074074,0.12925925925925924,-1.1894444444444443,-70.08948148148149,0.8928888888888886,-424.98037037037034
3.0,2024-05-10 14:36:07.955333376,4.06,0.11,-1.18,-64.21,-8.0,-457.4
3.0,2024-05-10 14:36:07.964895488,4.06,0.11,-1.18,-64.21,-8.0,-457.4
3.0,2024-05-10 14:36:07.974790144,4.011515151515152,0.033484848484848485,-1.167878787878788,-64.21,-8.0,-457.4
3.0,2024-05-10 14:36:07.985040384,3.42,-0.9,-1.02,-94.75741573033707,16.171385767790262,-532.1865168539325
3.0,2024-05-10 14:36:07.995346944,3.42,-0.9,-1.02,-96.07,17.21,-535.4
3.0,2024-05-10 14:36:08.004782848,3.42,-0.9,-1.02,-96.07,17.21,-535.4
3.0,2024-05-10 14:36:08.014974720,3.400714285714286,-1.1207142857142858,-1.0885714285714285,-94.19894736842105,9.46,-547.7434210526316
3.0,2024-05-10 14:36:08.025459968,3.33,-1.93,-1.3399999999999999,-81.85,-41.69,-629.21
3.0,2024-05-10 14:36:08.035048192,3.33,-1.93,-1.34,-81.85,-41.69,-629.21
3.0,2024-05-10 14:36:08.044509696,3.33,-1.93,-1.34,-81.85,-41.69,-629.21
3.0,2024-05-10 14:36:08.054735360,3.322359550561798,-2.109550561797753,-1.2521348314606744,-76.71943820224719,-74.11224719101124,-631.2270786516854
3.0,2024-05-10 14:36:08.065010688,3.31,-2.4,-1.11,-54.99,-211.43,-639.77
3.0,2024-05-10 14:36:08.075167232,3.31,-2.4,-1.11,-54.99,-211.43,-639.77
3.0,2024-05-10 14:36:08.085387520,3.31,-2.4,-1.11,-54.99,-211.43,-639.77
3.0,2024-05-10 14:36:08.095180288,3.313503937007874,-2.2318110236220474,-1.113503937007874,-76.12224409448818,-236.21685039370078,-624.776653543307
3.0,2024-05-10 14:36:08.105170176,3.32,-1.9199999999999997,-1.12,-115.3,-282.17,-596.98
3.0,2024-05-10 14:36:08.115266560,3.32,-1.92,-1.12,-115.3,-282.17,-596.98
3.0,2024-05-10 14:36:08.125282048,3.32,-1.92,-1.12,-115.3,-282.17,-596.98
3.0,2024-05-10 14:36:08.135232000,3.365321888412017,-1.9993133047210299,-1.4542489270386267,-128.8244635193133,-313.9190128755365,-571.544635193133
3.0,2024-05-10 14:36:08.144742912,3.4,-2.06,-1.71,-155.69999999999996,-377.01,-521.0
3.0,2024-05-10 14:36:08.154798848,3.4,-2.06,-1.71,-155.7,-377.01,-521.0
3.0,2024-05-10 14:36:08.165136896,3.4,-2.06,-1.71,-155.7,-377.01,-521.0
3.0,2024-05-10 14:36:08.174902016,3.5965217391304343,-1.912608695652174,-1.9016086956521738,-199.90265217391305,-385.5586956521739,-484.44204347826087
3.0,2024-05-10 14:36:08.184530688,3.8,-1.76,-2.1,-245.67,-394.41,-446.59
3.0,2024-05-10 14:36:08.190731776,3.7999999999999994,-1.76,-2.1,-245.67000000000002,-394.40999999999997,-446.59000000000003
