id,timestamp,acc_x,acc_y,acc_z,gyro_x,gyro_y,gyro_z
0.0,2024-05-10 14:32:50.928586240,2.48,-0.96,-0.23,94.3,114.26,-276.06
0.0,2024-05-10 14:32:50.935006976,2.48,-0.96,-0.23,94.3,114.26,-276.06
0.0,2024-05-10 14:32:50.944756224,2.3287551867219918,-0.7986721991701244,-0.014896265560165989,94.6290041493776,113.64531120331951,-276.6595020746888
0.0,2024-05-10 14:32:50.954759936,2.03,-0.48,0.41,120.73,64.88,-324.22
0.0,2024-05-10 14:32:50.964952064,2.03,-0.48,0.41,120.73,64.88,-324.22
0.0,2024-05-10 14:32:50.975529728,2.03,-0.48,0.41,120.73,64.88,-324.22
0.0,2024-05-10 14:32:50.985098240,1.9147736625514402,-0.3688888888888889,0.39353909465020576,120.73,64.88,-324.22
0.0,2024-05-10 14:32:50.994892800,1.75,-0.21,0.37,136.7125306122449,89.8638775510204,-373.320693877551
0.0,2024-05-10 14:32:51.004919040,1.75,-0.21,0.37,138.61,92.83,-379.15
0.0,2024-05-10 14:32:51.015126528,1.75,-0.21,0.36999999999999994,138.61,92.83,-379.15
0.0,2024-05-10 14:32:51.025351680,1.8365,-0.4096153846153846,0.41657692307692307,168.86973076923078,99.24596153846154,-407.26980769230767
0.0,2024-05-10 14:32:51.035369984,1.88,-0.51,0.44,218.08,109.68,-453.0
0.0,2024-05-10 14:32:51.045084416,1.88,-0.51,0.44,218.08,109.68,-453.0
0.0,2024-05-10 14:32:51.055232256,1.88,-0.51,0.44,218.08,109.68,-453.0
0.0,2024-05-10 14:32:51.065291520,2.1780327868852463,-0.7335245901639345,0.15852459016393441,190.67401639344266,155.90311475409837,-494.13073770491803
0.0,2024-05-10 14:32:51.075307520,2.24,-0.78,0.1,180.3,173.4,-509.70000000000005
0.0,2024-05-10 14:32:51.085003008,2.24,-0.78,0.1,180.3,173.4,-509.7
0.0,2024-05-10 14:32:51.094605056,2.24,-0.78,0.1,180.3,173.4,-509.7
0.0,2024-05-10 14:32:51.105032192,2.1842379182156137,-1.2075092936802974,0.23011152416356878,200.4442379182156,141.46505576208182,-565.3360594795539
0.0,2024-05-10 14:32:51.115446784,2.18,-1.24,0.24,203.86,136.05,-574.77
0.0,2024-05-10 14:32:51.125128192,2.18,-1.24,0.24,203.86,136.05,-574.77
0.0,2024-05-10 14:32:51.135277312,2.2078925619834715,-1.2195454545454545,0.25673553719008263,202.41628099173556,129.26095041322316,-576.0497107438016
0.0,2024-05-10 14:32:51.145152768,2.33,-1.13,0.33,190.92,75.2,-586.24
0.0,2024-05-10 14:32:51.154801664,2.33,-1.13,0.33,190.92,75.2,-586.24
0.0,2024-05-10 14:32:51.164755456,2.33,-1.13,0.33,190.92,75.2,-586.24
0.0,2024-05-10 14:32:51.175175168,2.245373134328358,-1.2961194029850744,0.34880597014925374,178.42544776119402,85.49223880597016,-589.3026865671642
0.0,2024-05-10 14:32:51.185525248,2.06,-1.66,0.39,128.91,126.28000000000002,-601.44
0.0,2024-05-10 14:32:51.195284992,2.06,-1.66,0.39,128.91,126.28,-601.44
0.0,2024-05-10 14:32:51.204907520,2.06,-1.66,0.39,128.91,126.27999999999999,-601.44
0.0,2024-05-10 14:32:51.215144448,0.9421818181818182,-1.5229090909090908,-0.12145454545454543,143.1529090909091,100.99945454545455,-569.7643636363637
0.0,2024-05-10 14:32:51.225509632,-0.06,-1.4,-0.58,174.99,44.49,-498.96000000000004
0.0,2024-05-10 14:32:51.235220736,-0.06,-1.4,-0.58,174.99,44.49,-498.96
0.0,2024-05-10 14:32:51.244955648,-0.06,-1.4,-0.58,174.99,44.49,-498.96
0.0,2024-05-10 14:32:51.255184640,-0.06,-1.4,-0.58,174.99,44.49,-498.96
0.0,2024-05-10 14:32:51.265143808,-0.06,-1.4,-0.58,174.99,44.49,-498.96
0.0,2024-05-10 14:32:51.275398912,-1.3325581395348838,-1.65953488372093,-0.48790697674418604,177.6439534883721,-46.82441860465116,-393.7981395348837
0.0,2024-05-10 14:32:51.285178368,-1.58,-1.71,-0.47,178.16,-64.58,-373.35
0.0,2024-05-10 14:32:51.294666240,-3.273694779116466,-2.0562248995983934,-1.1343775100401605,34.1037751004016,33.890281124497996,-108.45040160642571
0.0,2024-05-10 14:32:51.304977664,-3.39,-2.08,-1.18,-32.84,79.65,14.65
0.0,2024-05-10 14:32:51.314951680,-3.39,-2.08,-1.18,-32.84,79.65,14.65
0.0,2024-05-10 14:32:51.325068288,-3.0460629921259845,-1.9458267716535433,-1.0949606299212598,-47.41165354330709,76.48779527559056,44.287795275590554
0.0,2024-05-10 14:32:51.335305984,-1.57,-1.37,-0.73,-217.9,39.49,391.05
0.0,2024-05-10 14:32:51.344972288,-1.57,-1.37,-0.73,-217.9,39.49,391.05
0.0,2024-05-10 14:32:51.354735360,-1.57,-1.37,-0.73,-217.9,39.49,391.05
0.0,2024-05-10 14:32:51.365039104,-0.7509663865546219,-1.4803361344537815,-0.4838655462184874,-205.73411764705884,7.354705882352944,435.81970588235293
0.0,2024-05-10 14:32:51.374803712,0.36,-1.63,-0.15,-171.94,-81.91,560.18
0.0,2024-05-10 14:32:51.385361920,0.36,-1.63,-0.15,-171.94,-81.91,560.18
0.0,2024-05-10 14:32:51.394717952,0.36,-1.63,-0.15,-171.94,-81.91,560.18
0.0,2024-05-10 14:32:51.404637696,1.2477655677655677,-1.9722710622710622,-0.08582417582417583,-125.22304029304028,-120.5620879120879,592.9752380952381
0.0,2024-05-10 14:32:51.414816768,2.02,-2.27,-0.03,7.69,-230.53,686.28
0.0,2024-05-10 14:32:51.424785408,2.02,-2.27,-0.03,7.69,-230.53,686.28
0.0,2024-05-10 14:32:51.435568128,2.02,-2.27,-0.03,7.69,-230.53,686.28
0.0,2024-05-10 14:32:51.445500416,2.02,-2.27,-0.03,7.69,-230.53,686.28
0.0,2024-05-10 14:32:51.455481344,2.02,-2.27,-0.03,7.690000000000001,-230.53,686.28
0.0,2024-05-10 14:32:51.465053440,2.26,-2.1133333333333333,0.05666666666666667,17.23036529680365,-226.48963470319637,690.8969863013699
0.0,2024-05-10 14:32:51.475140864,2.7310526315789474,-1.786842105263158,0.23500000000000001,102.66,-190.31,732.24
0.0,2024-05-10 14:32:51.484917248,2.4,-1.3,0.42,16.417350427350428,-54.800213675213676,684.0396581196582
0.0,2024-05-10 14:32:51.494408960,2.4,-1.3,0.42,-25.88,11.66,660.4
0.0,2024-05-10 14:32:51.504770304,2.4,-1.3,0.42,-25.88,11.66,660.4
0.0,2024-05-10 14:32:51.515133696,2.2426171875,-1.2840625,0.34828125,-25.88,11.66,660.4
0.0,2024-05-10 14:32:51.524984832,1.61,-1.22,0.06,-64.12811764705882,98.12701960784315,530.2694509803922
0.0,2024-05-10 14:32:51.534952448,1.61,-1.22,0.06,-66.35,103.15,522.71
0.0,2024-05-10 14:32:51.544420608,1.61,-1.22,0.06,-66.35,103.15,522.71
0.0,2024-05-10 14:32:51.555085824,1.61,-1.22,0.060000000000000005,-66.35,103.15,522.71
0.0,2024-05-10 14:32:51.565145088,1.61,-1.22,0.06,-66.35,103.15,522.71
0.0,2024-05-10 14:32:51.574764544,1.61,-1.22,0.05999999999999999,-66.35,103.15,522.71
0.0,2024-05-10 14:32:51.584941824,1.61,-1.22,0.06,-66.35,103.15,522.71
0.0,2024-05-10 14:32:51.595056640,1.6172908366533865,-1.2127091633466134,0.06274900398406374,-68.21011952191235,104.32741035856574,521.5733466135458
0.0,2024-05-10 14:32:51.605283840,2.22,-0.61,0.29,-221.98,201.66,427.61
0.0,2024-05-10 14:32:51.614796800,2.22,-0.61,0.29,-221.98,201.66,427.61
0.0,2024-05-10 14:32:51.624863488,2.2642276422764227,-0.6477235772357723,0.24317073170731704,-221.98,201.66,427.61
0.0,2024-05-10 14:32:51.634801664,2.56,-0.9,-0.07,-91.70348178137651,-55.52056680161943,278.8047368421052
0.0,2024-05-10 14:32:51.644921600,2.56,-0.9,-0.07,-90.64000000000001,-57.62,277.59
0.0,2024-05-10 14:32:51.655070208,2.56,-0.9,-0.07,-90.64,-57.62,277.59
0.0,2024-05-10 14:32:51.664933888,2.7813698630136985,-0.7772602739726028,0.13383561643835615,-87.78351598173516,-62.268493150684925,242.7198630136986
0.0,2024-05-10 14:32:51.675033856,3.57,-0.34,0.86,-77.33,-79.28,115.11
0.0,2024-05-10 14:32:51.685537536,3.57,-0.34,0.86,-77.33,-79.28,115.11
0.0,2024-05-10 14:32:51.694822144,3.5474476987447696,-0.3335564853556485,0.895439330543933,-73.22012552301256,-69.6063179916318,100.0442259414226
0.0,2024-05-10 14:32:51.704776960,3.5,-0.32,0.97,-40.95,6.35,-18.25
0.0,2024-05-10 14:32:51.714397696,3.5,-0.32,0.97,-40.95,6.35,-18.25
0.0,2024-05-10 14:32:51.724575232,3.5,-0.32,0.9700000000000001,-40.95,6.35,-18.25
0.0,2024-05-10 14:32:51.734978816,3.494396887159533,-0.43766536964980546,0.776692607003891,-19.11466926070039,30.406964980544746,-70.55785992217898
0.0,2024-05-10 14:32:51.745163776,3.48,-0.74,0.28,36.99,92.22,-204.96
0.0,2024-05-10 14:32:51.755238912,3.48,-0.74,0.28,36.99,92.22,-204.96
0.0,2024-05-10 14:32:51.765281792,3.48,-0.74,0.28,36.99,92.22,-204.96
0.0,2024-05-10 14:32:51.775203328,3.2239271255060733,-0.8005263157894736,0.08910931174089069,44.80255060728746,81.02728744939272,-240.67983805668015
0.0,2024-05-10 14:32:51.785246976,2.93,-0.87,-0.13,53.77,68.18,-281.68
0.0,2024-05-10 14:32:51.794799616,2.93,-0.8700000000000001,-0.13,53.77,68.18,-281.68
0.0,2024-05-10 14:32:51.804602368,2.93,-0.87,-0.13,53.77,68.18,-281.68
0.0,2024-05-10 14:32:51.815156992,2.5433333333333334,-0.5864444444444444,0.19651851851851854,12.063888888888888,62.94111111111112,-312.635
0.0,2024-05-10 14:32:51.824904704,2.48,-0.54,0.25,-1.1600000000000001,61.28,-322.45
0.0,2024-05-10 14:32:51.834684416,2.48,-0.54,0.25,-1.16,61.28,-322.45
0.0,2024-05-10 14:32:51.844767488,2.48,-0.54,0.25,-1.16,61.28,-322.45
0.0,2024-05-10 14:32:51.854659840,2.48,-0.54,0.25,-1.16,61.28,-322.45
0.0,2024-05-10 14:32:51.865000704,2.48,-0.54,0.25,-1.16,61.28,-322.45
0.0,2024-05-10 14:32:51.875135744,2.044173553719008,-0.433099173553719,0.3815702479338843,26.1901652892562,106.20301652892563,-329.22586776859504
0.0,2024-05-10 14:32:51.885097216,1.9579377431906615,-0.4152918287937743,0.41264591439688714,37.73525291828794,113.78875486381322,-335.42898832684824
0.0,2024-05-10 14:32:51.895277568,2.01,-0.45,0.43,163.76,66.35,-441.41
0.0,2024-05-10 14:32:51.904966656,2.01,-0.45,0.43,163.76,66.35,-441.41
0.0,2024-05-10 14:32:51.915511808,2.01,-0.45,0.43,163.76,66.35,-441.41
0.0,2024-05-10 14:32:51.925406464,2.0304081632653057,-0.6030612244897959,0.3789795918367347,173.72326530612244,86.42755102040816,-460.0916326530612
0.0,2024-05-10 14:32:51.935162112,2.05,-0.75,0.32999999999999996,188.17,115.54,-487.18
0.0,2024-05-10 14:32:51.945067520,2.05,-0.75,0.33,188.17,115.54,-487.18
0.0,2024-05-10 14:32:51.955369216,2.05,-0.75,0.33,188.17,115.54,-487.18
0.0,2024-05-10 14:32:51.964802048,2.2273362445414846,-0.8358078602620087,0.20414847161572053,169.46065502183404,116.39973799126638,-510.0594759825327
0.0,2024-05-10 14:32:51.975116800,2.36,-0.9,0.11,141.6,117.68,-544.13
0.0,2024-05-10 14:32:51.985202688,2.36,-0.9,0.11,141.6,117.68,-544.13
0.0,2024-05-10 14:32:51.995074048,2.36,-0.9,0.11,141.6,117.68,-544.13
0.0,2024-05-10 14:32:52.005320192,2.3321400778210117,-1.1019844357976654,0.2632295719844358,143.05260700389104,96.20046692607004,-565.496420233463
0.0,2024-05-10 14:32:52.015233280,2.32,-1.19,0.33,144.04,81.6,-580.02
0.0,2024-05-10 14:32:52.024642304,2.32,-1.19,0.33,144.04,81.6,-580.02
0.0,2024-05-10 14:32:52.035021056,2.32,-1.19,0.33,144.04,81.6,-580.02
0.0,2024-05-10 14:32:52.044801536,2.285853658536585,-1.3778048780487804,0.32146341463414635,123.46784552845529,94.0630081300813,-590.479349593496
0.0,2024-05-10 14:32:52.054373120,2.28,-1.41,0.32,111.39,101.38,-596.62
0.0,2024-05-10 14:32:52.064810752,2.28,-1.41,0.32,111.39,101.38,-596.62
0.0,2024-05-10 14:32:52.075191808,2.28,-1.41,0.32,111.39,101.38,-596.62
0.0,2024-05-10 14:32:52.085100032,0.8951574803149607,-1.8056692913385826,-0.06775590551181103,155.04070866141734,26.32708661417323,-566.9303937007875
0.0,2024-05-10 14:32:52.095463936,0.53,-1.91,-0.17,175.11,-8.18,-553.28
0.0,2024-05-10 14:32:52.105181440,0.53,-1.91,-0.17,175.11,-8.18,-553.28
0.0,2024-05-10 14:32:52.114950656,0.5300000000000001,-1.91,-0.17,175.11,-8.18,-553.2799999999999
0.0,2024-05-10 14:32:52.124909568,-1.89492700729927,-2.2976277372262772,-0.5846715328467152,92.85711678832118,30.264890510948906,-387.4714233576642
0.0,2024-05-10 14:32:52.134933760,-2.16,-2.34,-0.63,72.2,39.92,-345.83
0.0,2024-05-10 14:32:52.144434176,-2.16,-2.34,-0.63,72.2,39.92,-345.83
0.0,2024-05-10 14:32:52.154692352,-2.168301886792453,-2.3390943396226413,-0.6333962264150943,72.2,39.92,-345.83
0.0,2024-05-10 14:32:52.165001984,-3.26,-2.22,-1.08,-51.28029411764705,8.145,5.828529411764707
0.0,2024-05-10 14:32:52.175129088,-3.26,-2.22,-1.08,-63.23,5.07,39.86
0.0,2024-05-10 14:32:52.184822272,-3.26,-2.22,-1.08,-63.23,5.07,39.86
0.0,2024-05-10 14:32:52.194629888,-2.8616239316239316,-2.0712393162393163,-0.9287179487179488,-65.44017094017094,-1.6847435897435898,72.231452991453
0.0,2024-05-10 14:32:52.205070848,-1.68,-1.63,-0.48,-90.45,-78.12,438.54
0.0,2024-05-10 14:32:52.215091200,-1.68,-1.63,-0.48,-90.45,-78.12,438.54
0.0,2024-05-10 14:32:52.225164800,-1.68,-1.63,-0.48,-90.45,-78.12,438.54
0.0,2024-05-10 14:32:52.234773760,-1.68,-1.63,-0.4799999999999999,-90.45,-78.12000000000002,438.54
0.0,2024-05-10 14:32:52.244789248,1.24,-1.78,0.22,-29.91,-94.54,657.78
0.0,2024-05-10 14:32:52.254908672,1.24,-1.78,0.22,-29.91,-94.54,657.78
0.0,2024-05-10 14:32:52.265180672,1.24,-1.78,0.22,-29.91,-94.54,657.78
0.0,2024-05-10 14:32:52.274738432,1.9450847457627118,-1.7194067796610168,-0.03338983050847457,-16.354745762711865,-73.4535593220339,694.9511864406779
0.0,2024-05-10 14:32:52.284666624,2.52,-1.67,-0.23999999999999996,0.85,-46.69,742.13
0.0,2024-05-10 14:32:52.295099648,2.52,-1.67,-0.24,0.85,-46.69,742.13
0.0,2024-05-10 14:32:52.305079040,2.52,-1.67,-0.24,0.85,-46.69,742.13
0.0,2024-05-10 14:32:52.314715648,2.506015625,-1.6839843749999999,-0.0022656249999999933,-27.946171875,-34.952109375,720.529921875
0.0,2024-05-10 14:32:52.324580608,2.5,-1.69,0.1,-47.97,-26.79,705.51
0.0,2024-05-10 14:32:52.334996736,2.5,-1.69,0.1,-47.97,-26.79,705.51
0.0,2024-05-10 14:32:52.345190144,2.5,-1.69,0.1,-47.97,-26.79,705.51
0.0,2024-05-10 14:32:52.355099392,2.0348360655737703,-1.5132377049180328,0.02557377049180328,-21.790081967213112,21.58983606557377,645.7202868852459
0.0,2024-05-10 14:32:52.364659200,2.0,-1.5,0.02,-15.87,32.53,632.2
0.0,2024-05-10 14:32:52.374786816,2.0,-1.5,0.02,-15.870000000000001,32.53,632.2
0.0,2024-05-10 14:32:52.384845568,1.997038626609442,-1.4992274678111588,0.017682403433476396,-15.870000000000001,32.53,632.2
0.0,2024-05-10 14:32:52.394657280,1.77,-1.44,-0.16,8.351080000000001,10.20848,574.68592
0.0,2024-05-10 14:32:52.404657152,1.77,-1.44,-0.16,19.96,-0.48999999999999994,547.12
0.0,2024-05-10 14:32:52.414612992,1.77,-1.44,-0.16,19.96,-0.49000000000000005,547.12
0.0,2024-05-10 14:32:52.424934144,1.925,-1.3366666666666667,-0.08,3.0937301587301587,11.13015873015873,551.1514682539683
0.0,2024-05-10 14:32:52.435568384,2.7,-0.82,0.31999999999999995,-203.74,153.63,600.59
0.0,2024-05-10 14:32:52.444715008,2.7,-0.82,0.32,-203.74,153.63,600.59
0.0,2024-05-10 14:32:52.454764032,2.7,-0.82,0.32,-203.74,153.63,600.59
0.0,2024-05-10 14:32:52.465088512,2.350464135021097,-0.6147679324894514,0.1468354430379747,-178.93797468354433,124.36738396624473,541.2770886075949
0.0,2024-05-10 14:32:52.475176192,1.61,-0.18,-0.22,-90.7,20.26,330.26
0.0,2024-05-10 14:32:52.484871168,1.61,-0.18,-0.22,-90.7,20.26,330.26000000000005
0.0,2024-05-10 14:32:52.494683648,1.61,-0.17999999999999997,-0.22,-90.7,20.26,330.26
0.0,2024-05-10 14:32:52.504934656,2.4393632958801494,-0.8799250936329588,0.005318352059925094,-91.56022471910113,-20.585842696629214,279.7255056179775
0.0,2024-05-10 14:32:52.515153664,3.34,-1.6400000000000001,0.25,-93.02,-89.90000000000002,193.97
0.0,2024-05-10 14:32:52.524625664,3.34,-1.64,0.25,-93.02,-89.9,193.97
0.0,2024-05-10 14:32:52.534817536,3.34,-1.64,0.25,-93.02,-89.9,193.97
0.0,2024-05-10 14:32:52.544910848,3.209262295081967,-0.7010655737704918,0.6303278688524591,-173.20176229508195,-18.55098360655738,140.9162704918033
0.0,2024-05-10 14:32:52.554732544,3.12,-0.060000000000000005,0.89,-247.07,47.18,92.04
0.0,2024-05-10 14:32:52.564938240,3.12,-0.060000000000000005,0.89,-247.07,47.18,92.04
0.0,2024-05-10 14:32:52.575476736,3.12,-0.05999999999999999,0.89,-247.07,47.18,92.03999999999999
0.0,2024-05-10 14:32:52.584879616,3.170823529411765,-0.34164705882352936,0.8794117647058823,-247.07,47.18,92.04
0.0,2024-05-10 14:32:52.594718976,3.36,-1.39,0.84,-247.07,47.18,92.04
0.0,2024-05-10 14:32:52.604960000,3.36,-1.39,0.84,-247.06999999999996,47.18,92.04
0.0,2024-05-10 14:32:52.615126528,3.36,-1.39,0.84,-189.26,93.58571428571429,0.8014285714285775
0.0,2024-05-10 14:32:52.625477120,3.2037837837837837,-1.206216216216216,-0.005405405405405409,33.75351351351351,212.6627027027027,-264.375945945946
0.0,2024-05-10 14:32:52.635171328,3.19,-1.19,-0.08,46.63,217.71,-277.04
0.0,2024-05-10 14:32:52.644635136,3.19,-1.19,-0.08,46.63,217.71,-277.04
0.0,2024-05-10 14:32:52.654833664,3.19,-1.19,-0.08,46.63,217.71,-277.04
0.0,2024-05-10 14:32:52.664657152,3.19,-1.19,-0.08,46.629999999999995,217.71,-277.03999999999996
0.0,2024-05-10 14:32:52.675116800,3.19,-1.19,-0.08,46.63,217.71,-277.04
0.0,2024-05-10 14:32:52.685183744,3.19,-1.19,-0.08,46.63,217.71,-277.04
0.0,2024-05-10 14:32:52.694990080,3.19,-1.19,-0.08,46.63,217.71,-277.04
0.0,2024-05-10 14:32:52.705177856,3.19,-1.1900000000000002,-0.08,46.63,217.71,-277.04
0.0,2024-05-10 14:32:52.714559744,3.19,-1.19,-0.08,46.63,217.71,-277.04
0.0,2024-05-10 14:32:52.725135872,1.786590909090909,-0.5570833333333333,0.34560606060606064,86.13621212121211,65.87420454545455,-321.6680303030303
0.0,2024-05-10 14:32:52.735190272,1.82,-0.25,0.51,131.41,30.52,-333.74
0.0,2024-05-10 14:32:52.744857856,1.82,-0.25,0.51,131.41,30.52,-333.74
0.0,2024-05-10 14:32:52.754829824,1.82,-0.25,0.51,131.41,30.52,-333.74
0.0,2024-05-10 14:32:52.764886272,1.9329761904761906,-0.3311111111111111,0.538968253968254,145.9913492063492,31.258095238095237,-355.1745238095238
0.0,2024-05-10 14:32:52.775083520,2.21,-0.53,0.61,204.9,34.24,-441.77
0.0,2024-05-10 14:32:52.784967936,2.21,-0.53,0.61,204.9,34.24,-441.77
0.0,2024-05-10 14:32:52.794712064,2.21,-0.53,0.61,204.9,34.24,-441.77
0.0,2024-05-10 14:32:52.804501760,2.320708661417323,-0.5766141732283465,0.4963779527559055,211.72055118110237,33.24633858267716,-459.8742519685039
0.0,2024-05-10 14:32:52.814423040,2.59,-0.69,0.22,241.76,28.87,-539.61
0.0,2024-05-10 14:32:52.824615168,2.59,-0.69,0.22,241.75999999999996,28.87,-539.61
0.0,2024-05-10 14:32:52.834897408,2.59,-0.69,0.22,241.76,28.87,-539.61
0.0,2024-05-10 14:32:52.845019648,2.3196875,-1.0414062499999999,0.1321484375,270.00359375,-30.586171875,-569.7205078125
0.0,2024-05-10 14:32:52.855284224,2.19,-1.21,0.09,323.0,-142.15,-626.22
0.0,2024-05-10 14:32:52.865254144,2.19,-1.21,0.09,323.0,-142.15,-626.22
0.0,2024-05-10 14:32:52.874889216,2.19,-1.21,0.09,323.0,-142.15,-626.22
0.0,2024-05-10 14:32:52.885157120,2.1724734982332152,-1.1223674911660777,0.36166077738515906,287.51787985865724,-210.1802473498233,-615.4231802120141
0.0,2024-05-10 14:32:52.895203840,2.17,-1.11,0.4,271.24,-241.39,-610.47
0.0,2024-05-10 14:32:52.905027584,2.17,-1.11,0.4,271.24,-241.39,-610.47
0.0,2024-05-10 14:32:52.915490560,2.17,-1.11,0.4,271.24,-241.39,-610.47
0.0,2024-05-10 14:32:52.925052928,1.7191071428571427,-1.3354464285714287,0.5172321428571428,97.66857142857144,-190.13821428571427,-576.9289285714286
0.0,2024-05-10 14:32:52.935104256,1.67,-1.36,0.53,55.24,-177.61,-568.73
0.0,2024-05-10 14:32:52.945057536,1.6700000000000002,-1.36,0.53,55.24,-177.61,-568.73
0.0,2024-05-10 14:32:52.955284992,1.3555731225296441,-1.4364822134387352,0.511304347826087,40.56909090909091,-169.7418181818182,-563.0863636363637
0.0,2024-05-10 14:32:52.965351936,-0.18,-1.81,0.42,-106.14,-91.06,-506.65
0.0,2024-05-10 14:32:52.975258368,-0.18,-1.81,0.42,-106.14,-91.06,-506.65
0.0,2024-05-10 14:32:52.985125632,-0.18,-1.81,0.42,-106.14,-91.06,-506.65
0.0,2024-05-10 14:32:52.995009280,-0.18,-1.81,0.42,-106.14,-91.06,-506.65
0.0,2024-05-10 14:32:53.004991744,-2.630428015564202,-2.2482879377431906,0.6391439688715953,-22.78560311284047,48.95307392996109,-262.73280155642016
0.0,2024-05-10 14:32:53.014397952,-2.64,-2.25,0.64,-22.46,49.5,-261.78
0.0,2024-05-10 14:32:53.024744192,-2.722142857142857,-2.182232142857143,0.5044642857142857,-23.72214285714286,53.95982142857143,-244.86214285714283
0.0,2024-05-10 14:32:53.034927104,-3.04,-1.92,-0.02,-46.02,132.75,54.02
0.0,2024-05-10 14:32:53.044715776,-3.04,-1.92,-0.02,-46.02,132.75,54.02
0.0,2024-05-10 14:32:53.054792192,-3.04,-1.9199999999999997,-0.02,-46.02,132.75,54.02
0.0,2024-05-10 14:32:53.064864768,-2.3733333333333335,-1.6278651685393257,0.0698876404494382,-46.02,132.75,54.02
0.0,2024-05-10 14:32:53.075130112,-1.26,-1.14,0.22,-132.62545454545455,150.99,340.6090909090909
0.0,2024-05-10 14:32:53.085342464,-1.26,-1.14,0.22,-146.3,153.87,385.86
0.0,2024-05-10 14:32:53.095129600,-1.26,-1.1400000000000001,0.22,-146.3,153.87,385.86
0.0,2024-05-10 14:32:53.105089280,-0.8275697211155378,-1.2819920318725098,0.26733067729083665,-141.12589641434266,151.4281673306773,430.65203187250995
0.0,2024-05-10 14:32:53.115087360,0.75,-1.8,0.44,-122.25,142.52,594.06
0.0,2024-05-10 14:32:53.124895488,0.75,-1.8,0.44,-122.25,142.52,594.06
0.0,2024-05-10 14:32:53.134919936,1.3145418326693226,-1.9087649402390436,0.3415936254980079,-103.81852589641434,122.85864541832669,640.6030278884461
0.0,2024-05-10 14:32:53.144745728,1.84,-2.01,0.25,-78.19,95.52,705.32
0.0,2024-05-10 14:32:53.154761472,1.84,-2.01,0.25,-78.19,95.52,705.32
0.0,2024-05-10 14:32:53.165144320,1.84,-2.01,0.25,-78.19,95.52,705.32
0.0,2024-05-10 14:32:53.174912000,2.296969696969697,-1.7578787878787878,0.07666666666666667,-80.7451948051948,82.34142857142857,701.6738961038961
0.0,2024-05-10 14:32:53.184559616,2.42,-1.69,0.03,-86.06,54.93,694.09
0.0,2024-05-10 14:32:53.194793216,2.42,-1.69,0.03,-86.06,54.93,694.09
0.0,2024-05-10 14:32:53.204641792,2.42,-1.69,0.03,-86.06,54.93,694.09
0.0,2024-05-10 14:32:53.215084288,1.9110714285714288,-1.4667857142857144,0.04785714285714286,-139.1109375,85.42848214285713,644.7987053571429
0.0,2024-05-10 14:32:53.225052672,1.85,-1.44,0.05,-184.27,111.39,602.84
0.0,2024-05-10 14:32:53.235144192,1.85,-1.44,0.05,-184.27,111.39,602.84
0.0,2024-05-10 14:32:53.245159936,1.85,-1.44,0.05,-184.27,111.39,602.84
0.0,2024-05-10 14:32:53.254814208,1.590776699029126,-1.630097087378641,-0.2437864077669903,-124.05936893203884,80.6654854368932,582.2063106796116
0.0,2024-05-10 14:32:53.264406016,1.55,-1.66,-0.29,-56.4,46.14,559.02
0.0,2024-05-10 14:32:53.274890752,1.55,-1.66,-0.29,-56.4,46.14,559.02
0.0,2024-05-10 14:32:53.285280000,1.8502,-1.4434,-0.5902000000000001,33.44416,-46.35504,536.10448
0.0,2024-05-10 14:32:53.295123456,2.3399999999999994,-1.09,-1.08,239.14,-258.12,483.64
0.0,2024-05-10 14:32:53.304794624,2.34,-1.09,-1.08,239.14,-258.12,483.64
0.0,2024-05-10 14:32:53.314752512,2.34,-1.09,-1.08,239.14,-258.12,483.64
0.0,2024-05-10 14:32:53.324735744,2.48828897338403,-0.9535741444866921,-0.9099619771863119,233.1530798479087,-226.4889733840304,465.84136882129275
0.0,2024-05-10 14:32:53.335315968,3.09,-0.4,-0.22,208.86,-98.14,393.62
0.0,2024-05-10 14:32:53.345290752,3.09,-0.4,-0.22,208.86,-98.14,393.62
0.0,2024-05-10 14:32:53.355126784,3.09,-0.4,-0.22,208.86,-98.14,393.62000000000006
0.0,2024-05-10 14:32:53.364937216,3.16155462184874,0.13390756302521004,-0.875,148.89428571428573,-64.21554621848739,307.906974789916
0.0,2024-05-10 14:32:53.374650368,3.22,0.57,-1.41,74.22,-21.97,201.17
0.0,2024-05-10 14:32:53.384786432,3.22,0.57,-1.41,74.22,-21.97,201.17
0.0,2024-05-10 14:32:53.394843392,3.22,0.57,-1.41,74.22,-21.97,201.17
0.0,2024-05-10 14:32:53.404978688,3.328725868725869,0.39702702702702697,-1.1085328185328183,27.736216216216217,-10.99972972972973,156.3791891891892
0.0,2024-05-10 14:32:53.414898432,3.66,-0.13,-0.19,-116.88,23.13,17.03
0.0,2024-05-10 14:32:53.424790016,3.66,-0.13,-0.19,-116.88,23.13,17.03
0.0,2024-05-10 14:32:53.434915840,3.67972,-0.1606,-0.20292000000000002,-116.88,23.13,17.03
0.0,2024-05-10 14:32:53.444998400,3.95,-0.58,-0.38,-242.65988095238095,227.99035714285714,-109.36690476190476
0.0,2024-05-10 14:32:53.454841856,3.95,-0.58,-0.38,-265.69,265.5,-132.51
0.0,2024-05-10 14:32:53.464811008,3.95,-0.58,-0.38,-265.69,265.5,-132.51
0.0,2024-05-10 14:32:53.474891264,3.8677570093457945,-0.7519626168224298,-0.46785046728971963,-265.69,265.5,-132.51
0.0,2024-05-10 14:32:53.484687104,3.51,-1.5,-0.85,-164.02333333333334,192.72857142857143,-299.862380952381
0.0,2024-05-10 14:32:53.494879232,3.51,-1.5,-0.85,-158.94,189.09,-308.23
0.0,2024-05-10 14:32:53.505052416,3.51,-1.5,-0.85,-158.94,189.09,-308.22999999999996
0.0,2024-05-10 14:32:53.514867200,3.2675,-1.2340322580645162,-0.5058064516129032,-144.95697580645162,170.61907258064517,-321.5206048387097
0.0,2024-05-10 14:32:53.525021184,2.89,-0.82,0.03,-93.51,102.66,-370.42
0.0,2024-05-10 14:32:53.535062016,2.89,-0.82,0.03,-93.51,102.66,-370.42
0.0,2024-05-10 14:32:53.545096448,2.89,-0.82,0.03,-93.51,102.66,-370.42
0.0,2024-05-10 14:32:53.555332864,2.379423076923077,-0.5681153846153847,0.1525384615384615,-68.18469230769232,130.37653846153847,-387.0801153846154
0.0,2024-05-10 14:32:53.565428736,2.14,-0.45,0.21,-51.57,148.56,-398.01
0.0,2024-05-10 14:32:53.575205888,2.14,-0.45,0.21,-51.57,148.56,-398.01
0.0,2024-05-10 14:32:53.585291776,2.14,-0.45,0.21,-51.57,148.56,-398.01
0.0,2024-05-10 14:32:53.595006976,1.898125,-0.369375,0.31078125,-46.69953125,177.48625,-401.249375
0.0,2024-05-10 14:32:53.605216000,1.78,-0.33,0.36,-43.03,199.28,-403.69
0.0,2024-05-10 14:32:53.615235840,1.78,-0.33,0.36,-43.03,199.28,-403.69
0.0,2024-05-10 14:32:53.625213440,1.78,-0.33,0.36,-43.03,199.28,-403.69
0.0,2024-05-10 14:32:53.635423232,1.4811857707509881,-0.7654150197628459,0.13802371541501976,33.79818181818182,214.23454545454547,-431.4227272727273
0.0,2024-05-10 14:32:53.645027328,1.43,-0.84,0.1,77.7,222.78,-447.2699999999999
0.0,2024-05-10 14:32:53.654720512,1.43,-0.84,0.1,77.7,222.78,-447.27
0.0,2024-05-10 14:32:53.664842752,1.43,-0.84,0.1,77.7,222.78,-447.2699999999999
0.0,2024-05-10 14:32:53.675032576,1.6351764705882352,-0.8912941176470588,0.15129411764705883,194.45450980392158,128.9253725490196,-479.1562352941176
0.0,2024-05-10 14:32:53.685079808,1.6699999999999997,-0.9,0.16,214.9,112.49,-484.74
0.0,2024-05-10 14:32:53.694967808,1.67,-0.9,0.16,214.9,112.49,-484.74
0.0,2024-05-10 14:32:53.705129984,1.700252100840336,-0.9100840336134454,0.17915966386554621,214.9,112.49,-484.73999999999995
0.0,2024-05-10 14:32:53.714666240,1.97,-1.0,0.35,205.11850980392157,62.32749019607843,-531.9142745098039
,,,,,,,
0.0,2024-05-10 14:32:53.738546176,1.9700000000000002,-1.0,0.35,205.08,62.13,-532.1
0.0,2024-05-10 14:32:53.744512768,1.937713004484305,-1.0688789237668161,0.358609865470852,191.02484304932736,72.99636771300449,-531.0611659192825
0.0,2024-05-10 14:32:53.754870016,1.82,-1.32,0.39,84.53,155.33,-523.19
0.0,2024-05-10 14:32:53.765038080,1.82,-1.32,0.39,84.53,155.33,-523.19
0.0,2024-05-10 14:32:53.774977024,1.82,-1.32,0.39,84.53,155.33,-523.19
0.0,2024-05-10 14:32:53.785159168,1.5515175097276266,-1.32,0.11256809338521401,65.5017120622568,169.94058365758755,-519.5949027237355
0.0,2024-05-10 14:32:53.794913792,1.22,-1.32,-0.23,28.32,198.49,-512.57
0.0,2024-05-10 14:32:53.804928256,1.22,-1.32,-0.23,28.32,198.49,-512.57
0.0,2024-05-10 14:32:53.814927360,1.22,-1.32,-0.23,28.32,198.49,-512.57
0.0,2024-05-10 14:32:53.824664832,0.3433057851239669,-1.3715702479338843,-0.5711570247933885,60.6902479338843,161.56570247933885,-474.9951239669422
0.0,2024-05-10 14:32:53.834761728,-0.99,-1.45,-1.09,109.92,105.41,-417.85
0.0,2024-05-10 14:32:53.844711424,-0.99,-1.45,-1.09,109.92,105.41,-417.85
0.0,2024-05-10 14:32:53.855107840,-0.9899999999999999,-1.45,-1.09,109.92,105.41,-417.85
0.0,2024-05-10 14:32:53.864900864,-1.9357261410788384,-1.833402489626556,-1.665103734439834,98.93609958506224,29.08585062240664,-279.56452282157676
0.0,2024-05-10 14:32:53.874618880,-2.47,-2.05,-1.99,87.1,-53.16,-130.55
0.0,2024-05-10 14:32:53.884606976,-2.47,-2.05,-1.9900000000000002,87.1,-53.16,-130.55
0.0,2024-05-10 14:32:53.895333120,-2.524375,-1.9871874999999997,-1.9496875,87.1,-53.160000000000004,-130.55
0.0,2024-05-10 14:32:53.905346048,-3.05,-1.38,-1.56,-101.44000000000001,-128.54,281.8
0.0,2024-05-10 14:32:53.915245312,-3.05,-1.38,-1.56,-101.44,-128.54,281.8
0.0,2024-05-10 14:32:53.925113856,-3.05,-1.38,-1.56,-101.44,-128.54,281.8
0.0,2024-05-10 14:32:53.934678528,-2.8753386454183265,-1.3678884462151393,-1.4803187250996015,-101.44,-128.54,281.8
0.0,2024-05-10 14:32:53.945044224,-0.31,-1.19,-0.31,-81.85623188405798,-233.07028985507247,508.9794202898551
0.0,2024-05-10 14:32:53.954970624,-0.31,-1.19,-0.31,-81.12,-237.0,517.52
0.0,2024-05-10 14:32:53.964656640,-0.31,-1.19,-0.31,-81.12,-237.0,517.52
0.0,2024-05-10 14:32:53.974699776,-0.14686695278969958,-1.2251502145922746,-0.29738197424892704,-81.12000000000002,-237.0,517.52
0.0,2024-05-10 14:32:53.984882944,1.5,-1.58,-0.17,77.18142857142858,-222.43172932330825,658.2948872180451
0.0,2024-05-10 14:32:53.994699776,1.5,-1.58,-0.17,82.09,-221.98000000000002,662.66
0.0,2024-05-10 14:32:54.004913664,1.5,-1.58,-0.17,82.09,-221.97999999999996,662.66
0.0,2024-05-10 14:32:54.015070208,1.9686178861788617,-1.6385772357723576,-0.015569105691056918,88.28817073170731,-191.7421951219512,673.8429268292682
0.0,2024-05-10 14:32:54.025115648,2.38,-1.69,0.12,102.42,-122.8,699.34
0.0,2024-05-10 14:32:54.035001600,2.38,-1.69,0.12,102.42,-122.8,699.34
0.0,2024-05-10 14:32:54.045000704,2.38,-1.69,0.12,102.42,-122.8,699.34
0.0,2024-05-10 14:32:54.055004672,2.3039655172413793,-1.5162068965517241,0.15258620689655172,42.092413793103454,-64.52844827586208,700.2365517241379
0.0,2024-05-10 14:32:54.065142272,2.24,-1.37,0.18,-37.54,12.39,701.42
0.0,2024-05-10 14:32:54.075327744,2.24,-1.37,0.18,-37.54,12.39,701.42
0.0,2024-05-10 14:32:54.085084160,2.24,-1.37,0.18,-37.54,12.39,701.42
0.0,2024-05-10 14:32:54.094567936,1.7797069597069597,-1.1134432234432234,0.11963369963369964,-52.66021978021978,6.463186813186813,595.9957509157509
0.0,2024-05-10 14:32:54.104981504,1.63,-1.03,0.1,-60.73,3.3,539.73
0.0,2024-05-10 14:32:54.114923008,1.63,-1.03,0.1,-60.73,3.3,539.73
0.0,2024-05-10 14:32:54.124633344,1.63,-1.03,0.1,-60.73,3.3,539.73
0.0,2024-05-10 14:32:54.134864896,1.4465168539325841,-1.2613483146067417,0.1,-46.07528089887641,-36.09303370786517,453.79606741573036
0.0,2024-05-10 14:32:54.145216256,1.4,-1.32,0.1,-42.36,-46.08,432.01
0.0,2024-05-10 14:32:54.154963968,1.4,-1.32,0.1,-42.35999999999999,-46.08,432.01
0.0,2024-05-10 14:32:54.164690944,1.41536,-1.308,0.10576,-42.36,-46.08,432.01
0.0,2024-05-10 14:32:54.174807552,1.72,-1.07,0.22,-63.02357933579337,-12.050147601476015,450.6532841328413
0.0,2024-05-10 14:32:54.185211136,1.72,-1.07,0.22,-67.93,-3.97,455.08
0.0,2024-05-10 14:32:54.194924800,1.72,-1.07,0.22,-67.93,-3.97,455.08
0.0,2024-05-10 14:32:54.204666624,1.9143726235741445,-1.1521292775665402,0.228212927756654,-80.30011406844106,9.872661596958174,448.01212927756654
0.0,2024-05-10 14:32:54.215050240,2.43,-1.37,0.25,-137.15,73.49,415.53
0.0,2024-05-10 14:32:54.224882944,2.43,-1.37,0.25,-137.15,73.49,415.53
0.0,2024-05-10 14:32:54.235033600,2.43,-1.37,0.25,-137.15,73.49,415.53
0.0,2024-05-10 14:32:54.245242880,2.6524436090225567,-1.3585338345864661,0.11928571428571429,-130.12353383458648,56.091240601503756,400.6216917293233
0.0,2024-05-10 14:32:54.255159040,3.4,-1.32,-0.32,-106.51,-2.38,350.52
0.0,2024-05-10 14:32:54.264984832,3.4,-1.32,-0.32000000000000006,-106.51,-2.38,350.52
0.0,2024-05-10 14:32:54.274717696,3.4,-1.32,-0.32,-106.50999999999999,-2.38,350.52
0.0,2024-05-10 14:32:54.284728320,3.791325301204819,-0.5373493975903615,0.39518072289156625,-68.67899598393574,-103.62425702811245,176.4516465863454
0.0,2024-05-10 14:32:54.295067648,3.98,-0.16,0.74,-41.99,-175.05,53.65
0.0,2024-05-10 14:32:54.305299968,3.98,-0.16,0.74,-41.99,-175.05,53.65
0.0,2024-05-10 14:32:54.315300864,3.98,-0.16,0.74,-41.99,-175.05,53.65
0.0,2024-05-10 14:32:54.324863488,3.642,-0.9486666666666667,0.8006666666666667,-62.36541666666666,75.03766666666667,-108.44483333333332
0.0,2024-05-10 14:32:54.334791168,3.59,-1.07,0.81,-72.94,204.83,-192.57
0.0,2024-05-10 14:32:54.344969984,3.59,-1.07,0.81,-72.94,204.83,-192.57
0.0,2024-05-10 14:32:54.355426048,3.59,-1.07,0.81,-72.94,204.83,-192.57
0.0,2024-05-10 14:32:54.365176320,3.1882378854625553,-1.1637444933920706,-0.24127753303964755,4.017533039647579,240.96180616740088,-245.6561674008811
0.0,2024-05-10 14:32:54.374790656,2.99,-1.21,-0.76,41.99,258.79,-271.85
0.0,2024-05-10 14:32:54.384988160,2.99,-1.21,-0.76,41.99,258.79,-271.85
0.0,2024-05-10 14:32:54.394924544,2.910316205533597,-1.1513438735177866,-0.6869565217391305,41.99,258.79,-271.85
0.0,2024-05-10 14:32:54.404838400,2.27,-0.68,-0.1,49.501769230769234,44.084384615384614,-333.383
0.0,2024-05-10 14:32:54.415177472,2.27,-0.68,-0.1,49.56,42.42,-333.86
0.0,2024-05-10 14:32:54.424941312,2.27,-0.68,-0.1,49.56,42.42,-333.86
0.0,2024-05-10 14:32:54.435092224,2.226611570247934,-0.6014876033057851,0.021900826446280986,48.170950413223146,49.16107438016529,-339.246611570248
0.0,2024-05-10 14:32:54.445278976,2.06,-0.3,0.49,37.11,102.84,-382.14
0.0,2024-05-10 14:32:54.455250176,2.06,-0.3,0.49000000000000005,37.11,102.84,-382.14
0.0,2024-05-10 14:32:54.465166080,2.06,-0.3,0.49,37.11,102.84,-382.14
0.0,2024-05-10 14:32:54.475005696,2.0252589641434264,-0.33474103585657367,0.429203187250996,58.93820717131474,109.19633466135458,-391.55705179282864
0.0,2024-05-10 14:32:54.485146368,1.9800000000000002,-0.38,0.35,99.37,120.97,-409.0
0.0,2024-05-10 14:32:54.495036672,1.98,-0.38,0.35,99.37,120.97,-409.0
0.0,2024-05-10 14:32:54.505268224,1.98,-0.38,0.35,99.37,120.97,-409.0
0.0,2024-05-10 14:32:54.515105536,2.0867906976744184,-0.4295813953488372,0.2851627906976744,108.69390697674417,144.32720930232557,-432.8
0.0,2024-05-10 14:32:54.525023232,2.26,-0.51,0.18,128.85,194.82,-484.25
0.0,2024-05-10 14:32:54.534931200,2.26,-0.51,0.18,128.85,194.82,-484.25
0.0,2024-05-10 14:32:54.544788224,2.26,-0.51,0.18,128.85,194.82,-484.25
0.0,2024-05-10 14:32:54.555226368,2.313135593220339,-0.6211016949152542,0.2427966101694915,142.940593220339,149.6257627118644,-511.4940677966101
0.0,2024-05-10 14:32:54.565379584,2.37,-0.74,0.31,158.02,101.26,-540.65
0.0,2024-05-10 14:32:54.575376896,2.37,-0.74,0.31,158.02,101.26,-540.65
0.0,2024-05-10 14:32:54.585173504,2.37,-0.74,0.31,158.02,101.26,-540.65
0.0,2024-05-10 14:32:54.594773760,2.748688524590164,-1.05844262295082,0.47352459016393444,143.80922131147543,176.61557377049178,-567.2145081967213
0.0,2024-05-10 14:32:54.604695808,2.81,-1.11,0.5,138.43,205.14,-577.27
0.0,2024-05-10 14:32:54.614641152,2.81,-1.11,0.5,138.43,205.14,-577.27
0.0,2024-05-10 14:32:54.624867328,2.81,-1.11,0.5,138.43,205.14,-577.27
0.0,2024-05-10 14:32:54.635235072,2.5,-1.86,0.18,183.37627049180327,176.9129918032787,-636.9536885245902
0.0,2024-05-10 14:32:54.645152256,2.5,-1.86,0.18,193.54,170.53,-650.45
0.0,2024-05-10 14:32:54.655105792,2.5,-1.86,0.18,193.54,170.53,-650.45
0.0,2024-05-10 14:32:54.664769280,2.5,-1.86,0.18,193.54,170.53000000000003,-650.4500000000002
0.0,2024-05-10 14:32:54.675073792,1.3643846153846155,-1.9596153846153845,-0.019230769230769232,197.43226923076924,120.4591923076923,-608.7288846153846
0.0,2024-05-10 14:32:54.685357312,1.36,-1.96,-0.02,197.81,115.6,-604.68
0.0,2024-05-10 14:32:54.694888192,1.36,-1.96,-0.02,197.81,115.6,-604.68
0.0,2024-05-10 14:32:54.704988416,0.6831672597864769,-1.984661921708185,-0.08576512455516015,197.96914590747332,95.61978647686833,-584.8903914590746
0.0,2024-05-10 14:32:54.715304960,-1.11,-2.05,-0.26,198.67,7.63,-497.74
0.0,2024-05-10 14:32:54.725001728,-1.11,-2.05,-0.26,198.67,7.63,-497.74
0.0,2024-05-10 14:32:54.735289344,-1.11,-2.05,-0.26,198.67,7.63,-497.74
0.0,2024-05-10 14:32:54.745680896,-2.2979087452471485,-2.5130038022813688,-0.7978326996197718,112.6277186311787,61.96673003802282,-342.09954372623577
0.0,2024-05-10 14:32:54.755209216,-3.65,-3.04,-1.41,-37.05,156.49,-71.35
0.0,2024-05-10 14:32:54.764859392,-3.65,-3.04,-1.41,-37.05,156.49000000000004,-71.35
0.0,2024-05-10 14:32:54.774358528,-3.65,-3.04,-1.41,-37.05,156.49,-71.35
0.0,2024-05-10 14:32:54.784776192,-2.57,-2.3711363636363636,-1.2627272727272727,-81.45504545454546,41.69077272727273,157.98104545454547
0.0,2024-05-10 14:32:54.794982912,-1.89,-1.95,-1.17,-125.05999999999999,-71.04,383.18
0.0,2024-05-10 14:32:54.805112576,-1.89,-1.95,-1.1699999999999997,-125.06,-71.04,383.18
0.0,2024-05-10 14:32:54.815246080,-1.89,-1.95,-1.1699999999999997,-125.06,-71.04,383.18
0.0,2024-05-10 14:32:54.824880640,-1.89,-1.95,-1.17,-125.06,-71.04,383.18
0.0,2024-05-10 14:32:54.834855936,-1.89,-1.95,-1.17,-125.06,-71.04,383.18
0.0,2024-05-10 14:32:54.845162496,-0.5806761565836298,-1.9455160142348753,-0.524306049822064,-125.06,-71.04,383.18
0.0,2024-05-10 14:32:54.855025664,1.03,-1.9399999999999997,0.27,-125.06,-71.04,383.18
0.0,2024-05-10 14:32:54.864635136,1.484560669456067,-1.9359414225941423,0.20912133891213391,-100.73799163179916,-87.0,594.4118828451883
0.0,2024-05-10 14:32:54.874761728,2.15,-1.93,0.11999999999999998,-41.38,-88.56,782.04
0.0,2024-05-10 14:32:54.885009152,2.15,-1.93,0.12,-41.38,-88.56,782.04
0.0,2024-05-10 14:32:54.895278848,2.3919354838709674,-1.8670967741935485,0.08612903225806451,-1.819919354838713,-94.21040322580646,780.8678225806451
0.0,2024-05-10 14:32:54.905360128,2.65,-1.8,0.05,67.63,-104.13,778.81
0.0,2024-05-10 14:32:54.915331840,2.65,-1.8,0.05,67.63,-104.13,778.81
0.0,2024-05-10 14:32:54.924992768,2.65,-1.8,0.05,67.63,-104.12999999999998,778.81
0.0,2024-05-10 14:32:54.931389696,2.65,-1.8,0.05,67.63,-104.13,778.81
